File: XRD_scan_data/Al2O3_Mesh 600 (10 to 14 microns)_1.xy
'Id: "" Comment: "" Operator: "Lab Manager" Anode: "Co" Scantype: "Coupled TwoTheta/Theta" TimePerStep: "38.4"
10 1.61458
10.0927 1.35417
10.1855 1.53646
10.2782 1.45833
10.371 1.32812
10.4637 1.5625
10.5565 1.45833
10.6492 1.30208
10.742 1.51042
10.8347 1.45833
10.9274 1.38021
11.0202 1.14583
11.1129 1.48437
11.2057 1.45833
11.2984 1.53646
11.3912 1.30208
11.4839 1.74479
11.5767 1.53646
11.6694 1.43229
11.7621 1.48437
11.8549 1.35417
11.9476 1.45833
12.0404 1.71875
12.1331 1.38021
12.2259 1.51042
12.3186 1.45833
12.4114 1.79687
12.5041 1.61458
12.5968 1.14583
12.6896 1.30208
12.7823 1.48437
12.8751 1.32812
12.9678 1.35417
13.0606 1.38021
13.1533 1.35417
13.2461 1.25
13.3388 1.06771
13.4315 1.48437
13.5243 1.32812
13.617 1.14583
13.7098 1.19792
13.8025 1.06771
13.8953 1.45833
13.988 0.78125
14.0808 1.06771
14.1735 1.48437
14.2662 1.19792
14.359 1.22396
14.4517 1.25
14.5445 1.04167
14.6372 0.78125
14.73 0.9375
14.8227 1.09375
14.9155 1.27604
15.0082 1.01562
15.101 1.09375
15.1937 1.04167
15.2864 1.01562
15.3792 0.859375
15.4719 1.25
15.5647 0.807292
15.6574 1.22396
15.7502 1.04167
15.8429 0.989583
15.9357 0.885417
16.0284 0.989583
16.1211 0.494792
16.2139 0.911458
16.3066 0.807292
16.3994 0.9375
16.4921 0.911458
16.5849 0.78125
16.6776 0.911458
16.7704 0.885417
16.8631 1.19792
16.9558 0.9375
17.0486 1.04167
17.1413 1.06771
17.2341 0.807292
17.3268 0.807292
17.4196 1.04167
17.5123 1.19792
17.6051 0.859375
17.6978 1.04167
17.7905 0.859375
17.8833 0.859375
17.976 1.01562
18.0688 1.66667
18.1615 2.52604
18.2543 0.885417
18.347 1.11979
18.4398 0.807292
18.5325 1.19792
18.6252 1.22396
18.718 0.572917
18.8107 0.651042
18.9035 0.9375
18.9962 1.09375
19.089 0.78125
19.1817 0.729167
19.2745 0.729167
19.3672 0.885417
19.4599 0.651042
19.5527 0.703125
19.6454 0.703125
19.7382 0.885417
19.8309 0.911458
19.9237 0.677083
20.0164 0.911458
20.1092 0.78125
20.2019 0.651042
20.2946 0.677083
20.3874 0.546875
20.4801 0.807292
20.5729 0.442708
20.6656 0.729167
20.7584 0.729167
20.8511 0.78125
20.9439 0.520833
21.0366 0.677083
21.1293 0.598958
21.2221 0.703125
21.3148 0.572917
21.4076 0.546875
21.5003 0.859375
21.5931 0.677083
21.6858 0.598958
21.7786 0.729167
21.8713 0.677083
21.964 0.46875
22.0568 0.755208
22.1495 0.78125
22.2423 0.963542
22.335 0.807292
22.4278 0.807292
22.5205 0.572917
22.6133 0.703125
22.706 0.625
22.7987 0.78125
22.8915 0.651042
22.9842 0.677083
23.077 1.01562
23.1697 1.19792
23.2625 0.520833
23.3552 0.494792
23.448 0.390625
23.5407 0.703125
23.6335 0.625
23.7262 0.651042
23.8189 0.625
23.9117 0.755208
24.0044 0.651042
24.0972 0.416667
24.1899 0.78125
24.2827 0.651042
24.3754 0.651042
24.4682 0.677083
24.5609 0.520833
24.6536 0.677083
24.7464 0.520833
24.8391 0.416667
24.9319 0.833333
25.0246 0.729167
25.1174 0.651042
25.2101 0.625
25.3029 0.625
25.3956 0.520833
25.4883 0.416667
25.5811 0.625
25.6738 0.520833
25.7666 0.546875
25.8593 0.494792
25.9521 0.390625
26.0448 0.390625
26.1376 0.416667
26.2303 0.442708
26.323 0.651042
26.4158 0.3125
26.5085 0.625
26.6013 0.677083
26.694 0.572917
26.7868 0.520833
26.8795 0.416667
26.9723 0.546875
27.065 0.286458
27.1577 0.46875
27.2505 0.572917
27.3432 0.520833
27.436 0.364583
27.5287 0.572917
27.6215 0.520833
27.7142 0.442708
27.807 0.390625
27.8997 0.416667
27.9924 0.416667
28.0852 0.703125
28.1779 0.208333
28.2707 0.572917
28.3634 0.364583
28.4562 0.390625
28.5489 0.364583
28.6417 0.364583
28.7344 0.442708
28.8271 0.364583
28.9199 0.46875
29.0126 0.572917
29.1054 0.677083
29.1981 0.729167
29.2909 0.833333
29.3836 0.807292
29.4764 1.5625
29.5691 2.52604
29.6618 11.5885
29.7546 68.3333
29.8473 17.526
29.9401 3.04687
30.0328 1.43229
30.1256 0.911458
30.2183 0.989583
30.3111 0.833333
30.4038 0.651042
30.4965 0.572917
30.5893 0.546875
30.682 0.572917
30.7748 0.390625
30.8675 0.390625
30.9603 0.520833
31.053 0.703125
31.1458 0.78125
31.2385 0.494792
31.3312 0.390625
31.424 0.390625
31.5167 0.416667
31.6095 0.416667
31.7022 0.546875
31.795 0.364583
31.8877 0.390625
31.9805 0.416667
32.0732 0.390625
32.1659 0.546875
32.2587 0.520833
32.3514 0.390625
32.4442 0.494792
32.5369 0.390625
32.6297 0.364583
32.7224 0.442708
32.8152 0.442708
32.9079 0.416667
33.0007 0.3125
33.0934 0.390625
33.1861 0.416667
33.2789 0.416667
33.3716 0.598958
33.4644 0.416667
33.5571 0.364583
33.6499 0.286458
33.7426 0.286458
33.8354 0.390625
33.9281 0.390625
34.0208 0.338542
34.1136 0.494792
34.2063 0.364583
34.2991 0.651042
34.3918 0.286458
34.4846 0.260417
34.5773 0.260417
34.6701 0.390625
34.7628 0.286458
34.8555 0.46875
34.9483 0.338542
35.041 0.390625
35.1338 0.234375
35.2265 0.390625
35.3193 0.3125
35.412 0.338542
35.5048 0.234375
35.5975 0.364583
35.6902 0.338542
35.783 0.416667
35.8757 0.260417
35.9685 0.338542
36.0612 0.442708
36.154 0.286458
36.2467 0.416667
36.3395 0.3125
36.4322 0.364583
36.5249 0.3125
36.6177 0.494792
36.7104 0.46875
36.8032 0.46875
36.8959 0.494792
36.9887 0.546875
37.0814 0.286458
37.1742 0.989583
37.2669 1.48437
37.3596 0.807292
37.4524 0.338542
37.5451 0.260417
37.6379 0.520833
37.7306 0.390625
37.8234 0.338542
37.9161 0.234375
38.0089 0.208333
38.1016 0.260417
38.1943 0.3125
38.2871 0.338542
38.3798 0.338542
38.4726 0.3125
38.5653 0.3125
38.6581 0.546875
38.7508 2.1875
38.8436 0.9375
38.9363 0.46875
39.029 0.3125
39.1218 0.208333
39.2145 0.390625
39.3073 0.390625
39.4 0.3125
39.4928 0.416667
39.5855 0.3125
39.6783 0.286458
39.771 0.3125
39.8637 0.442708
39.9565 0.390625
40.0492 0.416667
40.142 0.442708
40.2347 0.520833
40.3275 0.46875
40.4202 0.911458
40.513 0.859375
40.6057 1.04167
40.6984 1.32812
40.7912 2.89062
40.8839 6.43229
40.9767 50.599
41.0694 43.3854
41.1622 11.9271
41.2549 3.41146
41.3477 1.64062
41.4404 0.9375
41.5332 0.78125
41.6259 0.755208
41.7186 1.32812
41.8114 1.06771
41.9041 0.520833
41.9969 0.338542
42.0896 0.416667
42.1824 0.572917
42.2751 0.442708
42.3679 0.364583
42.4606 0.338542
42.5533 0.598958
42.6461 0.46875
42.7388 0.546875
42.8316 0.651042
42.9243 0.494792
43.0171 0.520833
43.1098 0.338542
43.2026 0.494792
43.2953 0.338542
43.388 0.520833
43.4808 0.807292
43.5735 0.494792
43.6663 0.677083
43.759 0.833333
43.8518 1.61458
43.9445 2.70833
44.0373 10.3906
44.13 40.7292
44.2227 23.8542
44.3155 4.01042
44.4082 1.45833
44.501 1.06771
44.5937 0.572917
44.6865 0.442708
44.7792 0.598958
44.872 0.338542
44.9647 0.390625
45.0574 0.416667
45.1502 0.390625
45.2429 0.234375
45.3357 0.390625
45.4284 0.46875
45.5212 0.390625
45.6139 0.416667
45.7067 0.520833
45.7994 0.46875
45.8921 0.260417
45.9849 0.364583
46.0776 0.494792
46.1704 0.520833
46.2631 0.390625
46.3559 0.442708
46.4486 0.651042
46.5414 0.364583
46.6341 0.338542
46.7268 0.3125
46.8196 0.651042
46.9123 0.364583
47.0051 0.338542
47.0978 0.442708
47.1906 0.338542
47.2833 0.572917
47.3761 0.364583
47.4688 0.338542
47.5615 0.442708
47.6543 0.3125
47.747 0.338542
47.8398 0.234375
47.9325 0.338542
48.0253 0.286458
48.118 0.3125
48.2108 0.364583
48.3035 0.208333
48.3962 0.546875
48.489 0.338542
48.5817 0.3125
48.6745 0.442708
48.7672 0.963542
48.86 0.703125
48.9527 0.364583
49.0455 0.3125
49.1382 0.260417
49.2309 0.546875
49.3237 0.390625
49.4164 0.9375
49.5092 0.703125
49.6019 0.494792
49.6947 0.46875
49.7874 0.494792
49.8802 0.390625
49.9729 0.755208
50.0656 0.703125
50.1584 0.729167
50.2511 0.78125
50.3439 1.17187
50.4366 1.82292
50.5294 4.16667
50.6221 8.69792
50.7149 49.8177
50.8076 45.026
50.9004 32.4479
50.9931 6.51042
51.0858 2.47396
51.1786 1.82292
51.2713 1.06771
51.3641 0.911458
51.4568 0.807292
51.5496 0.859375
51.6423 0.859375
51.7351 0.338542
51.8278 0.416667
51.9205 1.43229
52.0133 0.78125
52.106 0.677083
52.1988 0.260417
52.2915 0.390625
52.3843 0.338542
52.477 0.546875
52.5698 0.390625
52.6625 0.364583
52.7552 0.338542
52.848 0.390625
52.9407 0.364583
53.0335 0.234375
53.1262 0.3125
53.219 0.3125
53.3117 0.286458
53.4045 0.260417
53.4972 0.364583
53.5899 0.208333
53.6827 0.46875
53.7754 0.9375
53.8682 0.572917
53.9609 0.520833
54.0537 0.625
54.1464 1.43229
54.2392 0.911458
54.3319 0.625
54.4246 0.46875
54.5174 0.260417
54.6101 0.338542
54.7029 0.234375
54.7956 0.833333
54.8884 0.494792
54.9811 0.572917
55.0739 0.208333
55.1666 0.260417
55.2593 0.130208
55.3521 0.260417
55.4448 0.15625
55.5376 0.416667
55.6303 0.338542
55.7231 0.208333
55.8158 0.390625
55.9086 0.46875
56.0013 0.286458
56.094 0.546875
56.1868 0.494792
56.2795 0.286458
56.3723 0.182292
56.465 0.208333
56.5578 0.260417
56.6505 0.390625
56.7433 0.286458
56.836 0.260417
56.9287 0.494792
57.0215 0.234375
57.1142 0.3125
57.207 0.338542
57.2997 0.260417
57.3925 0.208333
57.4852 0.3125
57.578 0.260417
57.6707 0.338542
57.7634 0.208333
57.8562 0.208333
57.9489 0.15625
58.0417 0.390625
58.1344 0.338542
58.2272 0.390625
58.3199 0.15625
58.4127 0.260417
58.5054 0.338542
58.5981 0.234375
58.6909 0.390625
58.7836 0.260417
58.8764 0.182292
58.9691 0.3125
59.0619 0.182292
59.1546 0.364583
59.2474 0.15625
59.3401 0.3125
59.4329 0.390625
59.5256 0.416667
59.6183 0.416667
59.7111 0.182292
59.8038 0.15625
59.8966 0.15625
59.9893 0.208333
60.0821 0.364583
60.1748 0.234375
60.2676 0.3125
60.3603 0.234375
60.453 0.338542
60.5458 0.494792
60.6385 0.286458
60.7313 0.286458
60.824 0.442708
60.9168 0.416667
61.0095 0.572917
61.1023 0.546875
61.195 0.833333
61.2877 0.78125
61.3805 0.729167
61.4732 1.25
61.566 1.71875
61.6587 3.64583
61.7515 11.4323
61.8442 31.3542
61.937 15.625
62.0297 9.16667
62.1224 2.60417
62.2152 1.35417
62.3079 0.807292
62.4007 0.833333
62.4934 0.46875
62.5862 0.520833
62.6789 0.442708
62.7717 0.338542
62.8644 0.572917
62.9571 0.3125
63.0499 0.364583
63.1426 0.338542
63.2354 0.260417
63.3281 0.3125
63.4209 0.260417
63.5136 0.364583
63.6064 0.3125
63.6991 0.130208
63.7918 0.15625
63.8846 0.364583
63.9773 0.15625
64.0701 0.260417
64.1628 0.208333
64.2556 0.286458
64.3483 0.286458
64.4411 0.208333
64.5338 0.338542
64.6265 0.182292
64.7193 0.078125
64.812 0.338542
64.9048 0.3125
64.9975 0.234375
65.0903 0.130208
65.183 0.390625
65.2758 0.416667
65.3685 0.3125
65.4612 0.3125
65.554 0.3125
65.6467 0.286458
65.7395 0.364583
65.8322 0.182292
65.925 0.286458
66.0177 0.677083
66.1105 0.442708
66.2032 0.234375
66.2959 0.260417
66.3887 0.598958
66.4814 0.46875
66.5742 0.442708
66.6669 0.546875
66.7597 0.416667
66.8524 0.338542
66.9452 0.572917
67.0379 0.442708
67.1306 0.494792
67.2234 0.78125
67.3161 0.807292
67.4089 1.17187
67.5016 2.36979
67.5944 3.59375
67.6871 5.57292
67.7799 16.7448
67.8726 62.526
67.9653 25.3646
68.0581 29.5312
68.1508 6.90104
68.2436 2.96875
68.3363 1.58854
68.4291 1.19792
68.5218 0.989583
68.6146 0.572917
68.7073 0.572917
68.8001 0.416667
68.8928 0.572917
68.9855 0.546875
69.0783 0.494792
69.171 0.416667
69.2638 0.442708
69.3565 0.833333
69.4493 0.494792
69.542 0.546875
69.6348 0.442708
69.7275 0.625
69.8202 0.416667
69.913 0.286458
70.0057 0.3125
70.0985 0.338542
70.1912 0.3125
70.284 0.598958
70.3767 0.546875
70.4695 0.729167
70.5622 1.14583
70.6549 2.05729
70.7477 1.01562
70.8404 0.9375
70.9332 0.625
71.0259 0.442708
71.1187 0.598958
71.2114 0.520833
71.3042 0.234375
71.3969 0.078125
71.4896 0.234375
71.5824 0.364583
71.6751 0.364583
71.7679 0.3125
71.8606 0.598958
71.9534 0.703125
72.0461 0.703125
72.1389 0.520833
72.2316 0.859375
72.3243 2.76042
72.4171 1.84896
72.5098 3.69792
72.6026 4.14062
72.6953 2.05729
72.7881 1.5625
72.8808 0.703125
72.9736 0.572917
73.0663 0.703125
73.159 0.286458
73.2518 0.338542
73.3445 0.208333
73.4373 0.338542
73.53 0.416667
73.6228 0.286458
73.7155 0.364583
73.8083 0.104167
73.901 0.3125
73.9937 0.338542
74.0865 0.364583
74.1792 0.390625
74.272 0.520833
74.3647 0.286458
74.4575 0.338542
74.5502 0.416667
74.643 0.208333
74.7357 0.234375
74.8284 0.338542
74.9212 0.3125
75.0139 0.260417
75.1067 0.15625
75.1994 0.130208
75.2922 0.104167
75.3849 0.182292
75.4777 0.234375
75.5704 0.260417
75.6631 0.15625
75.7559 0.234375
75.8486 0.364583
75.9414 0.338542
76.0341 0.182292
76.1269 0.416667
76.2196 0.260417
76.3124 0.130208
76.4051 0.182292
76.4978 0.286458
76.5906 0.15625
76.6833 0.364583
76.7761 0.390625
76.8688 0.364583
76.9616 0.3125
77.0543 0.286458
77.1471 0.234375
77.2398 0.208333
77.3326 0.286458
77.4253 0.416667
77.518 0.260417
77.6108 0.234375
77.7035 0.182292
77.7963 0.3125
77.889 0.46875
77.9818 0.46875
78.0745 0.364583
78.1673 0.416667
78.26 0.885417
78.3527 0.677083
78.4455 0.755208
78.5382 0.755208
78.631 0.807292
78.7237 1.45833
78.8165 1.64062
78.9092 3.25521
79.002 8.98437
79.0947 23.4115
79.1874 9.55729
79.2802 13.8542
79.3729 4.375
79.4657 2.16146
79.5584 2.05729
79.6512 1.32812
79.7439 0.572917
79.8367 0.546875
79.9294 0.651042
80.0221 0.833333
80.1149 0.755208
80.2076 0.416667
80.3004 0.494792
80.3931 0.911458
80.4859 0.46875
80.5786 0.651042
80.6714 1.04167
80.7641 1.22396
80.8568 1.90104
80.9496 2.91667
81.0423 5
81.1351 15.0521
81.2278 33.9583
81.3206 14.5052
81.4133 19.2708
81.5061 7.68229
81.5988 2.96875
81.6915 1.95312
81.7843 1.61458
81.877 0.885417
81.9698 1.04167
82.0625 0.546875
82.1553 0.625
82.248 0.572917
82.3408 0.442708
82.4335 0.390625
82.5262 0.494792
82.619 0.494792
82.7117 0.520833
82.8045 0.442708
82.8972 0.364583
82.99 0.338542
83.0827 0.3125
83.1755 0.885417
83.2682 0.416667
83.3609 0.520833
83.4537 0.3125
83.5464 0.3125
83.6392 0.260417
83.7319 0.572917
83.8247 0.286458
83.9174 0.494792
84.0102 0.989583
84.1029 0.833333
84.1956 0.703125
84.2884 0.598958
84.3811 0.442708
84.4739 0.208333
84.5666 0.0520833
84.6594 0.442708
84.7521 0.234375
84.8449 0.520833
84.9376 0.286458
85.0303 0.442708
85.1231 0.286458
85.2158 0.0520833
85.3086 0.286458
85.4013 0.416667
85.4941 0.46875
85.5868 0.234375
85.6796 0.182292
85.7723 0.260417
85.8651 0.338542
85.9578 0.286458
86.0505 0.260417
86.1433 0.234375
86.236 0.46875
86.3288 0.208333
86.4215 0.260417
86.5143 0.3125
86.607 0.208333
86.6998 0.3125
86.7925 0.260417
86.8852 0.15625
86.978 0.15625
87.0707 0.286458
87.1635 0.3125
87.2562 0.130208
87.349 0.338542
87.4417 0.390625
87.5345 0.234375
87.6272 0.3125
87.7199 0.338542
87.8127 0.3125
87.9054 0.442708
87.9982 0.234375
88.0909 0.338542
88.1837 0.234375
88.2764 0.3125
88.3692 0.46875
88.4619 0.15625
88.5546 0.182292
88.6474 0.390625
88.7401 0.286458
88.8329 0.260417
88.9256 0.46875
89.0184 1.30208
89.1111 0.677083
89.2039 0.390625
89.2966 0.703125
89.3893 0.338542
89.4821 0.208333
89.5748 0.286458
89.6676 0.286458
89.7603 0.260417
89.8531 0.286458
89.9458 0.286458
90.0386 0.234375
90.1313 0.234375
90.224 0.260417
90.3168 0.338542
90.4095 0.3125
90.5023 0.416667
90.595 0.390625
90.6878 0.234375
90.7805 0.364583
90.8733 0.234375
90.966 0.364583
91.0587 0.3125
91.1515 0.260417
91.2442 0.442708
91.337 0.364583
91.4297 0.260417
91.5225 0.364583
91.6152 0.338542
91.708 0.234375
91.8007 0.3125
91.8934 0.3125
91.9862 0.598958
92.0789 0.885417
92.1717 1.30208
92.2644 2.42187
92.3572 7.34375
92.4499 5.33854
92.5427 2.91667
92.6354 4.89583
92.7281 3.56771
92.8209 4.63542
92.9136 4.11458
93.0064 2.13542
93.0991 3.04687
93.1919 1.45833
93.2846 1.09375
93.3774 0.598958
93.4701 0.364583
93.5628 0.494792
93.6556 0.3125
93.7483 0.234375
93.8411 0.208333
93.9338 0.3125
94.0266 0.286458
94.1193 0.286458
94.2121 0.234375
94.3048 0.208333
94.3975 0.3125
94.4903 0.364583
94.583 0.182292
94.6758 0.338542
94.7685 0.260417
94.8613 0.130208
94.954 0.338542
95.0468 0.338542
95.1395 0.260417
95.2323 0.546875
95.325 0.234375
95.4177 0.286458
95.5105 0.286458
95.6032 0.338542
95.696 0.390625
95.7887 0.338542
95.8815 0.364583
95.9742 0.46875
96.067 0.338542
96.1597 0.442708
96.2524 0.182292
96.3452 0.286458
96.4379 0.260417
96.5307 0.416667
96.6234 0.364583
96.7162 0.3125
96.8089 0.46875
96.9017 0.286458
96.9944 0.46875
97.0871 0.963542
97.1799 0.807292
97.2726 0.833333
97.3654 2.10937
97.4581 4.66146
97.5509 1.79687
97.6436 1.77083
97.7364 2.03125
97.8291 1.22396
97.9218 0.833333
98.0146 0.416667
98.1073 0.364583
98.2001 0.390625
98.2928 0.416667
98.3856 0.364583
98.4783 0.286458
98.5711 0.130208
98.6638 0.286458
98.7565 0.234375
98.8493 0.286458
98.942 0.286458
99.0348 0.3125
99.1275 0.208333
99.2203 0.260417
99.313 0.286458
99.4058 0.286458
99.4985 0.442708
99.5912 0.260417
99.684 0.3125
99.7767 0.286458
99.8695 0.260417
99.9622 0.260417
100.055 0.286458
100.148 0.416667
100.24 0.338542
100.333 0.104167
100.426 0.208333
100.519 0.260417
100.611 0.3125
100.704 0.364583
100.797 0.46875
100.89 0.833333
100.982 0.390625
101.075 0.494792
101.168 0.338542
101.261 0.546875
101.353 0.390625
101.446 0.364583
101.539 0.286458
101.632 0.234375
101.724 0.572917
101.817 0.338542
101.91 0.390625
102.003 0.572917
102.095 0.598958
102.188 0.78125
102.281 1.06771
102.374 1.74479
102.466 3.09896
102.559 1.35417
102.652 1.35417
102.745 2.39583
102.837 1.04167
102.93 0.546875
103.023 0.416667
103.116 0.364583
103.208 0.572917
103.301 0.572917
103.394 0.364583
103.487 0.46875
103.579 0.442708
103.672 0.416667
103.765 0.15625
103.857 0.416667
103.95 0.260417
104.043 0.416667
104.136 0.3125
104.228 0.338542
104.321 0.390625
104.414 0.338542
104.507 0.364583
104.599 0.338542
104.692 0.338542
104.785 0.46875
104.878 0.442708
104.97 0.677083
105.063 0.885417
105.156 2.13542
105.249 1.97917
105.341 1.74479
105.434 2.55208
105.527 2.57812
105.62 1.14583
105.712 1.17187
105.805 0.859375
105.898 0.598958
105.991 0.651042
106.083 0.338542
106.176 0.390625
106.269 0.260417
106.362 0.46875
106.454 0.208333
106.547 0.494792
106.64 0.3125
106.733 0.546875
106.825 0.338542
106.918 0.15625
107.011 0.286458
107.104 0.416667
107.196 0.364583
107.289 0.338542
107.382 0.390625
107.475 0.260417
107.567 0.598958
107.66 0.234375
107.753 0.234375
107.846 0.208333
107.938 0.390625
108.031 0.46875
108.124 0.3125
108.216 0.442708
108.309 0.494792
108.402 0.390625
108.495 0.546875
108.587 0.625
108.68 0.729167
108.773 1.22396
108.866 2.96875
108.958 4.0625
109.051 1.92708
109.144 1.51042
109.237 2.31771
109.329 1.90104
109.422 1.14583
109.515 0.625
109.608 0.677083
109.7 0.46875
109.793 0.520833
109.886 0.572917
109.979 0.46875
110.071 0.703125
110.164 0.260417
110.257 0.338542
110.35 0.338542
110.442 0.3125
110.535 0.3125
110.628 0.442708
110.721 0.338542
110.813 0.260417
110.906 0.46875
110.999 0.364583
111.092 0.416667
111.184 0.651042
111.277 0.833333
111.37 1.38021
111.463 1.30208
111.555 0.989583
111.648 1.19792
111.741 1.17187
111.834 1.71875
111.926 1.30208
112.019 3.61979
112.112 5.91146
112.205 2.76042
112.297 2.21354
112.39 2.36979
112.483 3.46354
112.575 1.17187
112.668 0.78125
112.761 0.729167
112.854 0.651042
112.946 0.442708
113.039 0.520833
113.132 0.338542
113.225 0.494792
113.317 0.416667
113.41 0.286458
113.503 0.46875
113.596 0.3125
113.688 0.494792
113.781 0.3125
113.874 0.390625
113.967 0.364583
114.059 0.260417
114.152 0.598958
114.245 0.364583
114.338 0.390625
114.43 0.3125
114.523 0.3125
114.616 0.3125
114.709 0.182292
114.801 0.46875
114.894 0.390625
114.987 0.338542
115.08 0.3125
115.172 0.364583
115.265 0.286458
115.358 0.416667
115.451 0.46875
115.543 0.260417
115.636 0.364583
115.729 0.520833
115.822 0.494792
115.914 0.286458
116.007 0.494792
116.1 0.494792
116.193 0.3125
116.285 0.390625
116.378 0.208333
116.471 0.651042
116.563 0.442708
116.656 0.390625
116.749 0.390625
116.842 0.416667
116.934 0.286458
117.027 0.3125
117.12 0.520833
117.213 0.416667
117.305 0.833333
117.398 0.546875
117.491 1.06771
117.584 0.598958
117.676 0.911458
117.769 1.38021
117.862 2.23958
117.955 3.07292
118.047 5.96354
118.14 11.7187
118.233 5.70312
118.326 4.27083
118.418 3.90625
118.511 6.5625
118.604 4.16667
118.697 2.34375
118.789 1.64062
118.882 1.19792
118.975 0.885417
119.068 0.78125
119.16 0.729167
119.253 0.885417
119.346 0.598958
119.439 0.494792
119.531 0.546875
119.624 0.286458
119.717 0.494792
119.81 0.46875
119.902 0.442708
119.995 0.3125
120.088 0.3125
120.181 0.46875
120.273 0.3125
120.366 0.208333
120.459 0.390625
120.552 0.651042
120.644 0.416667
120.737 0.234375
120.83 0.442708
120.922 0.390625
121.015 0.416667
121.108 0.46875
121.201 0.442708
121.293 0.416667
121.386 0.3125
121.479 0.286458
121.572 0.3125
121.664 0.234375
121.757 0.364583
121.85 0.546875
121.943 0.494792
122.035 0.3125
122.128 0.364583
122.221 0.364583
122.314 0.520833
122.406 0.364583
122.499 0.390625
122.592 0.598958
122.685 0.520833
122.777 0.677083
122.87 0.833333
122.963 1.30208
123.056 1.97917
123.148 0.963542
123.241 0.598958
123.334 0.989583
123.427 1.01562
123.519 0.989583
123.612 0.598958
123.705 0.78125
123.798 0.364583
123.89 0.260417
123.983 0.338542
124.076 0.677083
124.169 0.416667
124.261 0.442708
124.354 0.390625
124.447 0.338542
124.54 0.442708
124.632 0.3125
124.725 0.3125
124.818 0.572917
124.911 0.416667
125.003 0.338542
125.096 0.416667
125.189 0.416667
125.281 0.390625
125.374 0.442708
125.467 0.520833
125.56 0.364583
125.652 0.234375
125.745 0.442708
125.838 0.364583
125.931 0.416667
126.023 0.46875
126.116 0.546875
126.209 0.46875
126.302 0.546875
126.394 0.598958
126.487 0.260417
126.58 0.546875
126.673 0.598958
126.765 0.78125
126.858 1.11979
126.951 0.989583
127.044 1.38021
127.136 1.61458
127.229 2.91667
127.322 5.88542
127.415 8.61979
127.507 5
127.6 3.35937
127.693 2.68229
127.786 3.54167
127.878 5.52083
127.971 3.75
128.064 2.39583
128.157 1.43229
128.249 0.833333
128.342 0.598958
128.435 0.46875
128.528 0.572917
128.62 0.546875
128.713 0.46875
128.806 0.364583
128.899 0.46875
128.991 0.494792
129.084 0.546875
129.177 0.442708
129.27 0.338542
129.362 0.572917
129.455 0.520833
129.548 0.46875
129.64 0.494792
129.733 0.364583
129.826 0.598958
129.919 0.364583
130.011 0.598958
130.104 0.520833
130.197 0.520833
130.29 0.598958
130.382 0.625
130.475 0.651042
130.568 0.390625
130.661 0.598958
130.753 0.546875
130.846 0.651042
130.939 1.11979
131.032 1.04167
131.124 1.30208
131.217 2.10937
131.31 1.38021
131.403 1.04167
131.495 0.833333
131.588 1.06771
131.681 0.78125
131.774 1.19792
131.866 0.989583
131.959 0.729167
132.052 0.625
132.145 0.46875
132.237 0.520833
132.33 0.546875
132.423 0.729167
132.516 0.260417
132.608 0.3125
132.701 0.338542
132.794 0.260417
132.887 0.3125
132.979 0.46875
133.072 0.416667
133.165 0.234375
133.258 0.286458
133.35 0.46875
133.443 0.416667
133.536 0.416667
133.628 0.625
133.721 0.546875
133.814 0.260417
133.907 0.46875
133.999 0.494792
134.092 0.46875
134.185 0.494792
134.278 0.390625
134.37 0.3125
134.463 0.442708
134.556 0.442708
134.649 0.338542
134.741 0.416667
134.834 0.546875
134.927 0.598958
135.02 0.234375
135.112 0.572917
135.205 0.364583
135.298 0.442708
135.391 0.390625
135.483 0.390625
135.576 0.364583
135.669 0.208333
135.762 0.3125
135.854 0.572917
135.947 0.442708
136.04 0.260417
136.133 0.3125
136.225 0.520833
136.318 0.416667
136.411 0.46875
136.504 0.3125
136.596 0.546875
136.689 0.416667
136.782 0.364583
136.875 0.442708
136.967 0.3125
137.06 0.416667
137.153 0.546875
137.246 0.390625
137.338 0.416667
137.431 0.520833
137.524 0.442708
137.617 0.3125
137.709 0.286458
137.802 0.651042
137.895 0.520833
137.987 0.364583
138.08 0.494792
138.173 0.364583
138.266 0.390625
138.358 0.46875
138.451 0.442708
138.544 0.46875
138.637 0.546875
138.729 0.625
138.822 0.598958
138.915 0.338542
139.008 0.260417
139.1 0.416667
139.193 0.390625
139.286 0.546875
139.379 0.390625
139.471 0.572917
139.564 0.390625
139.657 0.234375
139.75 0.234375
139.842 0.46875
139.935 0.598958
139.997 0.260417