File: XRD_scan_data/Al2O3_Mesh 180 (63 to 90 microns)_2.xy
'Id: "" Comment: "" Operator: "Lab Manager" Anode: "Co" Scantype: "Coupled TwoTheta/Theta" TimePerStep: "38.4"
10 1.27604
10.0927 0.651042
10.1855 1.06771
10.2782 0.755208
10.371 0.859375
10.4637 0.9375
10.5565 0.833333
10.6492 1.22396
10.742 0.859375
10.8347 1.25
10.9274 0.911458
11.0202 0.807292
11.1129 0.833333
11.2057 0.755208
11.2984 1.17187
11.3912 1.11979
11.4839 1.48437
11.5767 1.19792
11.6694 1.09375
11.7621 1.06771
11.8549 1.09375
11.9476 1.58854
12.0404 0.78125
12.1331 0.963542
12.2259 0.9375
12.3186 0.989583
12.4114 1.22396
12.5041 0.963542
12.5968 1.19792
12.6896 1.38021
12.7823 1.32812
12.8751 0.9375
12.9678 1.22396
13.0606 1.06771
13.1533 1.40625
13.2461 1.04167
13.3388 0.9375
13.4315 0.989583
13.5243 1.14583
13.617 1.01562
13.7098 0.859375
13.8025 1.01562
13.8953 0.833333
13.988 1.04167
14.0808 0.989583
14.1735 0.859375
14.2662 1.35417
14.359 0.755208
14.4517 0.859375
14.5445 0.911458
14.6372 0.963542
14.73 1.14583
14.8227 0.885417
14.9155 0.9375
15.0082 0.911458
15.101 1.06771
15.1937 0.963542
15.2864 0.807292
15.3792 0.963542
15.4719 0.859375
15.5647 0.885417
15.6574 0.755208
15.7502 0.859375
15.8429 0.989583
15.9357 1.01562
16.0284 0.703125
16.1211 0.807292
16.2139 1.01562
16.3066 1.01562
16.3994 1.01562
16.4921 0.885417
16.5849 0.963542
16.6776 0.833333
16.7704 1.06771
16.8631 0.729167
16.9558 1.11979
17.0486 0.833333
17.1413 0.651042
17.2341 0.78125
17.3268 0.9375
17.4196 1.01562
17.5123 0.885417
17.6051 0.46875
17.6978 0.729167
17.7905 0.651042
17.8833 0.651042
17.976 0.9375
18.0688 2.42187
18.1615 1.19792
18.2543 0.625
18.347 0.807292
18.4398 0.677083
18.5325 0.833333
18.6252 0.598958
18.718 0.677083
18.8107 0.442708
18.9035 0.78125
18.9962 0.833333
19.089 0.598958
19.1817 0.859375
19.2745 0.651042
19.3672 0.546875
19.4599 0.651042
19.5527 0.572917
19.6454 0.729167
19.7382 0.520833
19.8309 0.598958
19.9237 0.572917
20.0164 0.729167
20.1092 0.833333
20.2019 0.703125
20.2946 0.598958
20.3874 0.546875
20.4801 0.546875
20.5729 0.364583
20.6656 0.598958
20.7584 0.677083
20.8511 0.833333
20.9439 0.859375
21.0366 0.651042
21.1293 0.598958
21.2221 0.729167
21.3148 0.625
21.4076 0.520833
21.5003 0.677083
21.5931 0.598958
21.6858 0.572917
21.7786 0.46875
21.8713 0.651042
21.964 0.572917
22.0568 0.677083
22.1495 0.390625
22.2423 0.442708
22.335 0.416667
22.4278 0.703125
22.5205 0.651042
22.6133 0.859375
22.706 0.651042
22.7987 0.494792
22.8915 0.520833
22.9842 0.442708
23.077 1.06771
23.1697 0.807292
23.2625 0.494792
23.3552 0.286458
23.448 0.572917
23.5407 0.364583
23.6335 0.494792
23.7262 0.625
23.8189 0.46875
23.9117 0.598958
24.0044 0.572917
24.0972 0.520833
24.1899 0.598958
24.2827 0.494792
24.3754 0.442708
24.4682 0.729167
24.5609 0.390625
24.6536 0.546875
24.7464 0.416667
24.8391 0.416667
24.9319 0.598958
25.0246 0.520833
25.1174 0.520833
25.2101 0.729167
25.3029 0.885417
25.3956 0.46875
25.4883 0.390625
25.5811 0.3125
25.6738 0.416667
25.7666 0.598958
25.8593 0.286458
25.9521 0.46875
26.0448 0.494792
26.1376 0.364583
26.2303 0.442708
26.323 0.572917
26.4158 0.364583
26.5085 0.260417
26.6013 0.442708
26.694 0.390625
26.7868 0.364583
26.8795 0.390625
26.9723 0.390625
27.065 0.286458
27.1577 0.520833
27.2505 0.390625
27.3432 0.260417
27.436 0.3125
27.5287 0.286458
27.6215 0.46875
27.7142 0.416667
27.807 0.260417
27.8997 0.572917
27.9924 0.364583
28.0852 0.3125
28.1779 0.520833
28.2707 0.46875
28.3634 0.234375
28.4562 0.494792
28.5489 0.520833
28.6417 0.416667
28.7344 0.234375
28.8271 0.442708
28.9199 0.520833
29.0126 0.46875
29.1054 0.494792
29.1981 0.598958
29.2909 0.364583
29.3836 0.859375
29.4764 0.755208
29.5691 1.92708
29.6618 11.6406
29.7546 24.9219
29.8473 2.68229
29.9401 0.885417
30.0328 0.677083
30.1256 0.546875
30.2183 0.442708
30.3111 0.546875
30.4038 0.3125
30.4965 0.390625
30.5893 0.260417
30.682 0.546875
30.7748 0.364583
30.8675 0.338542
30.9603 0.46875
31.053 0.416667
31.1458 0.390625
31.2385 0.3125
31.3312 0.46875
31.424 0.494792
31.5167 0.234375
31.6095 0.3125
31.7022 0.442708
31.795 0.338542
31.8877 0.390625
31.9805 0.3125
32.0732 0.208333
32.1659 0.208333
32.2587 0.104167
32.3514 0.364583
32.4442 0.416667
32.5369 0.390625
32.6297 0.520833
32.7224 0.364583
32.8152 0.364583
32.9079 0.338542
33.0007 0.286458
33.0934 0.3125
33.1861 0.338542
33.2789 0.494792
33.3716 0.546875
33.4644 0.234375
33.5571 0.364583
33.6499 0.260417
33.7426 0.442708
33.8354 0.15625
33.9281 0.390625
34.0208 0.286458
34.1136 0.364583
34.2063 0.286458
34.2991 0.182292
34.3918 0.364583
34.4846 0.3125
34.5773 0.260417
34.6701 0.3125
34.7628 0.260417
34.8555 0.807292
34.9483 0.598958
35.041 0.208333
35.1338 0.46875
35.2265 0.208333
35.3193 0.286458
35.412 0.390625
35.5048 0.286458
35.5975 0.390625
35.6902 0.234375
35.783 0.416667
35.8757 0.338542
35.9685 0.15625
36.0612 0.260417
36.154 0.208333
36.2467 0.625
36.3395 0.572917
36.4322 0.234375
36.5249 0.364583
36.6177 0.15625
36.7104 0.572917
36.8032 0.390625
36.8959 0.364583
36.9887 0.286458
37.0814 0.46875
37.1742 0.520833
37.2669 0.390625
37.3596 0.234375
37.4524 0.182292
37.5451 0.286458
37.6379 0.416667
37.7306 0.416667
37.8234 0.130208
37.9161 0.364583
38.0089 0.15625
38.1016 0.286458
38.1943 0.208333
38.2871 0.208333
38.3798 0.208333
38.4726 0.364583
38.5653 0.338542
38.6581 0.677083
38.7508 1.40625
38.8436 0.755208
38.9363 0.234375
39.029 0.3125
39.1218 0.390625
39.2145 0.182292
39.3073 0.208333
39.4 0.46875
39.4928 0.15625
39.5855 0.15625
39.6783 0.182292
39.771 0.390625
39.8637 0.208333
39.9565 0.390625
40.0492 0.390625
40.142 0.651042
40.2347 0.520833
40.3275 0.442708
40.4202 0.3125
40.513 0.520833
40.6057 0.677083
40.6984 0.651042
40.7912 1.875
40.8839 3.72396
40.9767 63.3333
41.0694 41.5885
41.1622 3.90625
41.2549 1.06771
41.3477 0.651042
41.4404 0.625
41.5332 0.625
41.6259 0.963542
41.7186 4.47917
41.8114 1.35417
41.9041 0.494792
41.9969 0.364583
42.0896 0.338542
42.1824 0.338542
42.2751 0.364583
42.3679 0.494792
42.4606 0.286458
42.5533 0.572917
42.6461 0.130208
42.7388 0.260417
42.8316 0.78125
42.9243 0.416667
43.0171 0.338542
43.1098 0.338542
43.2026 0.3125
43.2953 0.3125
43.388 0.442708
43.4808 0.859375
43.5735 0.677083
43.6663 0.494792
43.759 0.651042
43.8518 1.09375
43.9445 0.911458
44.0373 11.4844
44.13 20.3125
44.2227 11.875
44.3155 1.04167
44.4082 0.651042
44.501 0.390625
44.5937 0.3125
44.6865 0.234375
44.7792 0.364583
44.872 0.286458
44.9647 0.546875
45.0574 0.390625
45.1502 0.3125
45.2429 0.208333
45.3357 0.208333
45.4284 0.286458
45.5212 1.04167
45.6139 0.416667
45.7067 0.260417
45.7994 0.234375
45.8921 0.260417
45.9849 0.46875
46.0776 0.260417
46.1704 0.15625
46.2631 0.416667
46.3559 0.46875
46.4486 0.520833
46.5414 0.390625
46.6341 0.208333
46.7268 0.494792
46.8196 0.677083
46.9123 0.3125
47.0051 0.286458
47.0978 0.364583
47.1906 0.729167
47.2833 0.338542
47.3761 0.234375
47.4688 0.286458
47.5615 0.234375
47.6543 0.182292
47.747 0.338542
47.8398 0.208333
47.9325 0.208333
48.0253 0.234375
48.118 0.130208
48.2108 0.390625
48.3035 0.338542
48.3962 0.390625
48.489 0.15625
48.5817 0.3125
48.6745 0.416667
48.7672 0.442708
48.86 0.390625
48.9527 0.3125
49.0455 0.208333
49.1382 0.338542
49.2309 0.364583
49.3237 0.494792
49.4164 0.546875
49.5092 0.442708
49.6019 0.442708
49.6947 0.3125
49.7874 0.3125
49.8802 0.234375
49.9729 0.15625
50.0656 0.338542
50.1584 0.442708
50.2511 0.390625
50.3439 0.729167
50.4366 1.19792
50.5294 1.48437
50.6221 4.73958
50.7149 45.7812
50.8076 20.599
50.9004 4.34896
50.9931 1.09375
51.0858 0.729167
51.1786 0.494792
51.2713 0.364583
51.3641 0.286458
51.4568 0.286458
51.5496 0.390625
51.6423 0.625
51.7351 0.338542
51.8278 0.364583
51.9205 0.963542
52.0133 0.46875
52.106 0.260417
52.1988 0.3125
52.2915 0.208333
52.3843 0.286458
52.477 0.3125
52.5698 0.260417
52.6625 0.182292
52.7552 0.15625
52.848 0.338542
52.9407 0.260417
53.0335 0.0520833
53.1262 0.260417
53.219 0.286458
53.3117 0.416667
53.4045 0.338542
53.4972 0.15625
53.5899 0.234375
53.6827 0.338542
53.7754 0.338542
53.8682 0.3125
53.9609 0.208333
54.0537 0.442708
54.1464 0.442708
54.2392 0.703125
54.3319 0.234375
54.4246 0.104167
54.5174 0.338542
54.6101 0.234375
54.7029 0.182292
54.7956 0.677083
54.8884 0.494792
54.9811 0.416667
55.0739 0.364583
55.1666 0.182292
55.2593 0.130208
55.3521 0.364583
55.4448 0.130208
55.5376 0.182292
55.6303 0.208333
55.7231 0.130208
55.8158 0.208333
55.9086 0.182292
56.0013 0.182292
56.094 0.286458
56.1868 0.208333
56.2795 0.234375
56.3723 0.3125
56.465 0.3125
56.5578 0.182292
56.6505 0.234375
56.7433 0.260417
56.836 0.338542
56.9287 0.234375
57.0215 0.0520833
57.1142 0.208333
57.207 0.234375
57.2997 0.182292
57.3925 0.234375
57.4852 0.104167
57.578 0.260417
57.6707 0.260417
57.7634 0.182292
57.8562 0.182292
57.9489 0.182292
58.0417 1.19792
58.1344 0.3125
58.2272 0.286458
58.3199 0.286458
58.4127 0.182292
58.5054 0.3125
58.5981 0.286458
58.6909 0.130208
58.7836 0.15625
58.8764 0.208333
58.9691 0.208333
59.0619 0.234375
59.1546 0.286458
59.2474 0.182292
59.3401 0.104167
59.4329 0.286458
59.5256 0.260417
59.6183 0.286458
59.7111 0.130208
59.8038 0.15625
59.8966 0.15625
59.9893 0.364583
60.0821 0.208333
60.1748 0.338542
60.2676 0.208333
60.3603 0.234375
60.453 0.46875
60.5458 0.338542
60.6385 0.234375
60.7313 0.234375
60.824 0.286458
60.9168 0.390625
61.0095 0.338542
61.1023 0.3125
61.195 0.338542
61.2877 0.338542
61.3805 0.234375
61.4732 0.46875
61.566 0.677083
61.6587 1.53646
61.7515 8.69792
61.8442 7.42187
61.937 7.60417
62.0297 1.25
62.1224 0.598958
62.2152 0.364583
62.3079 0.234375
62.4007 0.234375
62.4934 0.15625
62.5862 0.364583
62.6789 0.208333
62.7717 0.130208
62.8644 0.15625
62.9571 0.208333
63.0499 0.260417
63.1426 0.234375
63.2354 0.104167
63.3281 0.338542
63.4209 0.234375
63.5136 0.208333
63.6064 0.078125
63.6991 0.260417
63.7918 0.390625
63.8846 0.3125
63.9773 0.104167
64.0701 0.182292
64.1628 0.182292
64.2556 0.234375
64.3483 0.234375
64.4411 0.208333
64.5338 0.130208
64.6265 0.130208
64.7193 0.260417
64.812 0.234375
64.9048 0.260417
64.9975 0.46875
65.0903 0.260417
65.183 0.182292
65.2758 0.364583
65.3685 0.494792
65.4612 0.234375
65.554 0.46875
65.6467 0.260417
65.7395 0.234375
65.8322 0.130208
65.925 0.234375
66.0177 0.234375
66.1105 0.208333
66.2032 0.286458
66.2959 0.520833
66.3887 0.208333
66.4814 0.338542
66.5742 0.182292
66.6669 0.3125
66.7597 0.130208
66.8524 0.286458
66.9452 0.416667
67.0379 0.260417
67.1306 0.651042
67.2234 0.598958
67.3161 0.442708
67.4089 0.833333
67.5016 1.43229
67.5944 1.40625
67.6871 2.83854
67.7799 19.1927
67.8726 33.1771
67.9653 20.9896
68.0581 12.1354
68.1508 3.54167
68.2436 1.32812
68.3363 1.40625
68.4291 0.625
68.5218 0.546875
68.6146 0.260417
68.7073 0.442708
68.8001 0.286458
68.8928 0.3125
68.9855 0.338542
69.0783 0.286458
69.171 0.260417
69.2638 0.520833
69.3565 0.338542
69.4493 0.625
69.542 0.390625
69.6348 0.416667
69.7275 0.442708
69.8202 0.442708
69.913 0.286458
70.0057 0.3125
70.0985 0.260417
70.1912 0.3125
70.284 0.364583
70.3767 0.364583
70.4695 0.286458
70.5622 1.11979
70.6549 0.78125
70.7477 0.833333
70.8404 0.3125
70.9332 0.260417
71.0259 0.208333
71.1187 0.286458
71.2114 0.338542
71.3042 0.234375
71.3969 0.364583
71.4896 0.286458
71.5824 0.260417
71.6751 0.260417
71.7679 0.234375
71.8606 0.208333
71.9534 0.442708
72.0461 0.208333
72.1389 0.260417
72.2316 0.651042
72.3243 3.04687
72.4171 0.911458
72.5098 2.5
72.6026 1.27604
72.6953 0.755208
72.7881 0.494792
72.8808 0.286458
72.9736 0.234375
73.0663 0.364583
73.159 0.15625
73.2518 0.286458
73.3445 0.260417
73.4373 0.364583
73.53 0.130208
73.6228 0.182292
73.7155 0.260417
73.8083 0.260417
73.901 0.416667
73.9937 0.286458
74.0865 0.208333
74.1792 0.416667
74.272 0.442708
74.3647 0.338542
74.4575 0.182292
74.5502 0.234375
74.643 0.3125
74.7357 0.182292
74.8284 0.364583
74.9212 0.260417
75.0139 0.182292
75.1067 0.286458
75.1994 0.208333
75.2922 0.208333
75.3849 0.234375
75.4777 0.234375
75.5704 0.182292
75.6631 0.208333
75.7559 0.260417
75.8486 0.182292
75.9414 0.364583
76.0341 0.260417
76.1269 0.130208
76.2196 0.15625
76.3124 0.208333
76.4051 0.15625
76.4978 0.182292
76.5906 0.182292
76.6833 0.15625
76.7761 0.130208
76.8688 0.130208
76.9616 0.182292
77.0543 0.130208
77.1471 0.234375
77.2398 0.416667
77.3326 0.286458
77.4253 0.130208
77.518 0.286458
77.6108 0.416667
77.7035 0.234375
77.7963 0.286458
77.889 0.390625
77.9818 0.260417
78.0745 0.390625
78.1673 0.260417
78.26 0.755208
78.3527 1.06771
78.4455 0.963542
78.5382 0.729167
78.631 0.598958
78.7237 0.546875
78.8165 0.9375
78.9092 1.32812
79.002 10.1042
79.0947 5.75521
79.1874 4.6875
79.2802 3.95833
79.3729 0.963542
79.4657 0.546875
79.5584 0.338542
79.6512 0.416667
79.7439 0.364583
79.8367 0.338542
79.9294 0.390625
80.0221 0.364583
80.1149 0.234375
80.2076 0.416667
80.3004 0.416667
80.3931 0.234375
80.4859 0.442708
80.5786 0.364583
80.6714 0.494792
80.7641 0.677083
80.8568 0.911458
80.9496 1.04167
81.0423 2.73437
81.1351 17.8646
81.2278 13.5417
81.3206 8.17708
81.4133 12.5
81.5061 2.55208
81.5988 1.22396
81.6915 0.859375
81.7843 0.677083
81.877 0.494792
81.9698 0.494792
82.0625 0.182292
82.1553 0.234375
82.248 0.208333
82.3408 0.208333
82.4335 0.286458
82.5262 0.260417
82.619 0.15625
82.7117 0.338542
82.8045 0.182292
82.8972 0.208333
82.99 0.416667
83.0827 0.416667
83.1755 0.390625
83.2682 0.572917
83.3609 0.260417
83.4537 0.260417
83.5464 0.416667
83.6392 0.234375
83.7319 0.3125
83.8247 0.208333
83.9174 0.390625
84.0102 1.14583
84.1029 0.338542
84.1956 0.755208
84.2884 0.546875
84.3811 0.234375
84.4739 0.15625
84.5666 0.3125
84.6594 0.234375
84.7521 0.442708
84.8449 0.234375
84.9376 0.234375
85.0303 0.208333
85.1231 0.208333
85.2158 0.260417
85.3086 0.182292
85.4013 0.338542
85.4941 0.130208
85.5868 0.15625
85.6796 0.208333
85.7723 0.234375
85.8651 0.260417
85.9578 0.208333
86.0505 0.130208
86.1433 0.286458
86.236 0.182292
86.3288 0.15625
86.4215 0.104167
86.5143 0.130208
86.607 0.182292
86.6998 0.130208
86.7925 0.338542
86.8852 0.286458
86.978 0.15625
87.0707 0.15625
87.1635 0.3125
87.2562 0.286458
87.349 0.182292
87.4417 0.078125
87.5345 0.208333
87.6272 0.390625
87.7199 0.104167
87.8127 0.182292
87.9054 0.208333
87.9982 0.208333
88.0909 0.234375
88.1837 0.260417
88.2764 0.182292
88.3692 0.338542
88.4619 0.130208
88.5546 0.208333
88.6474 0.234375
88.7401 0.15625
88.8329 0.260417
88.9256 0.3125
89.0184 2.57812
89.1111 0.572917
89.2039 0.598958
89.2966 0.546875
89.3893 0.338542
89.4821 0.182292
89.5748 0.182292
89.6676 0.260417
89.7603 0.286458
89.8531 0.15625
89.9458 0.3125
90.0386 0.208333
90.1313 0.208333
90.224 0.338542
90.3168 0.208333
90.4095 0.260417
90.5023 0.260417
90.595 0.260417
90.6878 0.338542
90.7805 0.234375
90.8733 0.208333
90.966 0.208333
91.0587 0.104167
91.1515 0.234375
91.2442 0.260417
91.337 0.15625
91.4297 0.260417
91.5225 0.3125
91.6152 0.338542
91.708 0.260417
91.8007 0.182292
91.8934 0.260417
91.9862 0.442708
92.0789 0.364583
92.1717 0.625
92.2644 0.703125
92.3572 5.13021
92.4499 1.58854
92.5427 0.911458
92.6354 2.23958
92.7281 1.04167
92.8209 3.38542
92.9136 1.97917
93.0064 0.833333
93.0991 1.51042
93.1919 0.572917
93.2846 0.390625
93.3774 0.234375
93.4701 0.260417
93.5628 0.416667
93.6556 0.286458
93.7483 0.208333
93.8411 0.260417
93.9338 0.208333
94.0266 0.208333
94.1193 0.3125
94.2121 0.182292
94.3048 0.15625
94.3975 0.130208
94.4903 0.234375
94.583 0.260417
94.6758 0.15625
94.7685 0.182292
94.8613 0.260417
94.954 0.260417
95.0468 0.208333
95.1395 0.338542
95.2323 0.286458
95.325 0.364583
95.4177 0.15625
95.5105 0.15625
95.6032 0.15625
95.696 0.182292
95.7887 0.182292
95.8815 0.15625
95.9742 0.234375
96.067 0.130208
96.1597 0.260417
96.2524 0.3125
96.3452 0.364583
96.4379 0.0260417
96.5307 0.494792
96.6234 0.286458
96.7162 0.234375
96.8089 0.182292
96.9017 0.182292
96.9944 0.494792
97.0871 0.520833
97.1799 0.338542
97.2726 0.416667
97.3654 1.61458
97.4581 2.86458
97.5509 0.859375
97.6436 0.989583
97.7364 1.58854
97.8291 0.572917
97.9218 0.442708
98.0146 0.286458
98.1073 0.15625
98.2001 0.182292
98.2928 0.286458
98.3856 0.208333
98.4783 0.3125
98.5711 0.260417
98.6638 0.286458
98.7565 0.390625
98.8493 0.260417
98.942 0.15625
99.0348 0.3125
99.1275 0.208333
99.2203 0.104167
99.313 0.15625
99.4058 0.390625
99.4985 0.260417
99.5912 0.130208
99.684 0.260417
99.7767 0.286458
99.8695 0.182292
99.9622 0.208333
100.055 0.364583
100.148 0.104167
100.24 0.130208
100.333 0.3125
100.426 0.234375
100.519 0.130208
100.611 0.182292
100.704 0.104167
100.797 0.494792
100.89 0.390625
100.982 0.208333
101.075 0.234375
101.168 0.182292
101.261 0.208333
101.353 0.182292
101.446 0.416667
101.539 0.442708
101.632 0.364583
101.724 0.286458
101.817 0.260417
101.91 0.15625
102.003 0.260417
102.095 0.338542
102.188 0.338542
102.281 0.625
102.374 2.96875
102.466 1.77083
102.559 0.598958
102.652 0.963542
102.745 1.97917
102.837 0.572917
102.93 0.3125
103.023 0.286458
103.116 0.182292
103.208 0.130208
103.301 0.15625
103.394 0.338542
103.487 0.338542
103.579 0.234375
103.672 0.338542
103.765 0.260417
103.857 0.338542
103.95 0.338542
104.043 0.182292
104.136 0.208333
104.228 0.182292
104.321 0.260417
104.414 0.3125
104.507 0.338542
104.599 0.3125
104.692 0.260417
104.785 0.364583
104.878 0.338542
104.97 0.338542
105.063 1.06771
105.156 3.64583
105.249 1.69271
105.341 1.64062
105.434 1.82292
105.527 1.875
105.62 0.651042
105.712 1.35417
105.805 0.651042
105.898 0.572917
105.991 0.338542
106.083 0.3125
106.176 0.3125
106.269 0.364583
106.362 0.286458
106.454 0.546875
106.547 0.442708
106.64 0.442708
106.733 0.598958
106.825 0.416667
106.918 0.416667
107.011 0.286458
107.104 0.182292
107.196 0.3125
107.289 0.3125
107.382 0.208333
107.475 0.15625
107.567 0.208333
107.66 0.3125
107.753 0.104167
107.846 0.182292
107.938 0.182292
108.031 0.364583
108.124 0.208333
108.216 0.208333
108.309 0.260417
108.402 0.46875
108.495 0.3125
108.587 0.390625
108.68 0.677083
108.773 0.963542
108.866 2.65625
108.958 6.32812
109.051 1.17187
109.144 1.11979
109.237 1.95312
109.329 2.16146
109.422 0.651042
109.515 0.677083
109.608 0.46875
109.7 0.182292
109.793 0.390625
109.886 0.234375
109.979 0.208333
110.071 0.234375
110.164 0.234375
110.257 0.130208
110.35 0.286458
110.442 0.260417
110.535 0.3125
110.628 0.494792
110.721 0.15625
110.813 0.234375
110.906 0.260417
110.999 0.260417
111.092 0.15625
111.184 0.338542
111.277 0.442708
111.37 1.32812
111.463 0.807292
111.555 0.442708
111.648 0.364583
111.741 0.833333
111.834 0.9375
111.926 0.651042
112.019 3.48958
112.112 2.23958
112.205 1.09375
112.297 0.755208
112.39 2.00521
112.483 1.27604
112.575 0.46875
112.668 0.364583
112.761 0.46875
112.854 0.182292
112.946 0.286458
113.039 0.260417
113.132 0.390625
113.225 0.182292
113.317 0.260417
113.41 0.130208
113.503 0.182292
113.596 0.208333
113.688 0.286458
113.781 0.234375
113.874 0.338542
113.967 0.286458
114.059 0.182292
114.152 0.286458
114.245 0.234375
114.338 0.234375
114.43 0.286458
114.523 0.234375
114.616 0.364583
114.709 0.572917
114.801 0.15625
114.894 0.286458
114.987 0.260417
115.08 0.3125
115.172 0.3125
115.265 0.234375
115.358 0.208333
115.451 0.442708
115.543 0.260417
115.636 0.182292
115.729 0.130208
115.822 0.3125
115.914 0.286458
116.007 0.3125
116.1 0.3125
116.193 0.442708
116.285 0.260417
116.378 0.364583
116.471 0.182292
116.563 0.390625
116.656 0.416667
116.749 0.416667
116.842 0.494792
116.934 0.286458
117.027 0.546875
117.12 0.46875
117.213 0.416667
117.305 0.494792
117.398 0.390625
117.491 0.572917
117.584 0.520833
117.676 0.677083
117.769 0.364583
117.862 0.755208
117.955 1.53646
118.047 4.21875
118.14 7.70833
118.233 1.92708
118.326 1.27604
118.418 1.97917
118.511 4.375
118.604 2.08333
118.697 0.9375
118.789 0.416667
118.882 0.598958
118.975 0.416667
119.068 0.442708
119.16 0.3125
119.253 0.390625
119.346 0.390625
119.439 0.286458
119.531 0.208333
119.624 0.182292
119.717 0.416667
119.81 0.46875
119.902 0.364583
119.995 0.260417
120.088 0.234375
120.181 0.3125
120.273 0.208333
120.366 0.234375
120.459 0.208333
120.552 0.260417
120.644 0.15625
120.737 0.234375
120.83 0.286458
120.922 0.364583
121.015 0.260417
121.108 0.234375
121.201 0.234375
121.293 0.130208
121.386 0.182292
121.479 0.234375
121.572 0.234375
121.664 0.390625
121.757 0.364583
121.85 0.338542
121.943 0.546875
122.035 0.208333
122.128 0.234375
122.221 0.416667
122.314 0.286458
122.406 0.234375
122.499 0.416667
122.592 0.338542
122.685 0.286458
122.777 0.260417
122.87 1.09375
122.963 1.45833
123.056 2.57812
123.148 0.625
123.241 0.546875
123.334 0.520833
123.427 1.25
123.519 0.625
123.612 0.494792
123.705 0.286458
123.798 0.546875
123.89 0.442708
123.983 0.234375
124.076 0.3125
124.169 0.286458
124.261 0.260417
124.354 0.390625
124.447 0.260417
124.54 0.416667
124.632 0.3125
124.725 0.364583
124.818 0.416667
124.911 0.3125
125.003 0.234375
125.096 0.364583
125.189 0.208333
125.281 0.208333
125.374 0.390625
125.467 0.442708
125.56 0.286458
125.652 0.390625
125.745 0.364583
125.838 0.260417
125.931 0.234375
126.023 0.416667
126.116 0.338542
126.209 0.442708
126.302 0.494792
126.394 0.416667
126.487 0.286458
126.58 0.416667
126.673 0.46875
126.765 0.416667
126.858 0.442708
126.951 0.520833
127.044 0.78125
127.136 0.989583
127.229 1.40625
127.322 4.79167
127.415 5.52083
127.507 2.23958
127.6 1.27604
127.693 0.911458
127.786 2.08333
127.878 4.19271
127.971 2.8125
128.064 1.66667
128.157 0.885417
128.249 0.9375
128.342 0.494792
128.435 0.494792
128.528 0.3125
128.62 0.46875
128.713 0.494792
128.806 0.494792
128.899 0.364583
128.991 0.338542
129.084 0.416667
129.177 0.260417
129.27 0.442708
129.362 0.3125
129.455 0.364583
129.548 0.364583
129.64 0.286458
129.733 0.234375
129.826 0.338542
129.919 0.442708
130.011 0.234375
130.104 0.416667
130.197 0.3125
130.29 0.364583
130.382 0.494792
130.475 0.208333
130.568 0.442708
130.661 0.390625
130.753 0.364583
130.846 0.494792
130.939 0.3125
131.032 0.572917
131.124 0.9375
131.217 1.11979
131.31 0.651042
131.403 0.677083
131.495 0.3125
131.588 0.416667
131.681 0.703125
131.774 1.06771
131.866 0.442708
131.959 0.46875
132.052 0.416667
132.145 0.286458
132.237 0.364583
132.33 0.260417
132.423 0.260417
132.516 0.390625
132.608 0.364583
132.701 0.182292
132.794 0.260417
132.887 0.46875
132.979 0.442708
133.072 0.3125
133.165 0.3125
133.258 0.416667
133.35 0.364583
133.443 0.416667
133.536 0.598958
133.628 0.390625
133.721 0.364583
133.814 0.364583
133.907 0.234375
133.999 0.416667
134.092 0.494792
134.185 0.520833
134.278 0.520833
134.37 0.390625
134.463 0.520833
134.556 0.520833
134.649 0.416667
134.741 0.572917
134.834 0.46875
134.927 0.416667
135.02 0.442708
135.112 0.364583
135.205 0.598958
135.298 0.286458
135.391 0.208333
135.483 0.364583
135.576 0.651042
135.669 0.364583
135.762 0.208333
135.854 0.286458
135.947 0.46875
136.04 0.416667
136.133 0.3125
136.225 0.3125
136.318 0.260417
136.411 0.46875
136.504 0.364583
136.596 0.390625
136.689 0.234375
136.782 0.520833
136.875 0.286458
136.967 0.286458
137.06 0.234375
137.153 0.234375
137.246 0.338542
137.338 0.364583
137.431 0.442708
137.524 0.390625
137.617 0.364583
137.709 0.416667
137.802 0.390625
137.895 0.3125
137.987 0.46875
138.08 0.390625
138.173 0.416667
138.266 0.494792
138.358 0.390625
138.451 0.46875
138.544 0.416667
138.637 0.46875
138.729 0.442708
138.822 0.286458
138.915 0.546875
139.008 0.546875
139.1 0.208333
139.193 0.364583
139.286 0.338542
139.379 0.364583
139.471 0.338542
139.564 0.208333
139.657 0.442708
139.75 0.546875
139.842 0.390625
139.935 0.677083
139.997 0.3125