File: XRD_scan_data/Al2O3_Mesh 320 (40 to 50 microns)_1.xy
'Id: "" Comment: "" Operator: "Lab Manager" Anode: "Co" Scantype: "Coupled TwoTheta/Theta" TimePerStep: "38.4"
10 1.69271
10.0927 1.19792
10.1855 1.875
10.2782 1.38021
10.371 1.45833
10.4637 1.77083
10.5565 1.5625
10.6492 1.48437
10.742 1.27604
10.8347 1.53646
10.9274 1.5625
11.0202 1.84896
11.1129 1.32812
11.2057 1.74479
11.2984 1.77083
11.3912 1.40625
11.4839 1.5625
11.5767 1.51042
11.6694 1.38021
11.7621 1.64062
11.8549 1.45833
11.9476 1.22396
12.0404 1.53646
12.1331 1.11979
12.2259 1.61458
12.3186 0.989583
12.4114 1.17187
12.5041 1.43229
12.5968 1.06771
12.6896 1.19792
12.7823 1.53646
12.8751 1.25
12.9678 1.48437
13.0606 1.40625
13.1533 1.01562
13.2461 1.35417
13.3388 1.32812
13.4315 1.48437
13.5243 1.74479
13.617 1.14583
13.7098 1.32812
13.8025 0.989583
13.8953 1.35417
13.988 1.17187
14.0808 1.01562
14.1735 1.09375
14.2662 1.09375
14.359 0.963542
14.4517 1.22396
14.5445 0.963542
14.6372 1.06771
14.73 1.30208
14.8227 1.17187
14.9155 0.859375
15.0082 0.833333
15.101 1.09375
15.1937 1.22396
15.2864 1.19792
15.3792 1.27604
15.4719 1.25
15.5647 1.22396
15.6574 1.04167
15.7502 1.06771
15.8429 0.729167
15.9357 0.911458
16.0284 1.32812
16.1211 1.14583
16.2139 1.19792
16.3066 1.19792
16.3994 1.17187
16.4921 1.06771
16.5849 0.911458
16.6776 0.989583
16.7704 1.14583
16.8631 0.963542
16.9558 0.911458
17.0486 0.807292
17.1413 1.06771
17.2341 0.885417
17.3268 0.807292
17.4196 0.677083
17.5123 0.9375
17.6051 0.755208
17.6978 0.911458
17.7905 1.04167
17.8833 0.703125
17.976 1.22396
18.0688 3.17708
18.1615 1.27604
18.2543 0.911458
18.347 1.09375
18.4398 0.833333
18.5325 0.807292
18.6252 0.833333
18.718 0.885417
18.8107 1.01562
18.9035 0.885417
18.9962 0.911458
19.089 0.859375
19.1817 1.04167
19.2745 0.989583
19.3672 0.9375
19.4599 0.963542
19.5527 0.807292
19.6454 1.06771
19.7382 0.859375
19.8309 0.807292
19.9237 0.885417
20.0164 0.729167
20.1092 0.677083
20.2019 0.572917
20.2946 0.729167
20.3874 0.9375
20.4801 0.677083
20.5729 0.703125
20.6656 0.677083
20.7584 0.859375
20.8511 0.833333
20.9439 0.755208
21.0366 0.729167
21.1293 0.625
21.2221 0.729167
21.3148 0.625
21.4076 0.520833
21.5003 0.807292
21.5931 0.729167
21.6858 0.598958
21.7786 0.572917
21.8713 0.598958
21.964 0.651042
22.0568 1.06771
22.1495 0.598958
22.2423 0.78125
22.335 0.416667
22.4278 0.677083
22.5205 0.703125
22.6133 0.885417
22.706 0.677083
22.7987 0.494792
22.8915 0.625
22.9842 0.755208
23.077 1.30208
23.1697 0.46875
23.2625 0.833333
23.3552 0.494792
23.448 0.520833
23.5407 0.625
23.6335 0.416667
23.7262 0.494792
23.8189 0.833333
23.9117 0.9375
24.0044 0.442708
24.0972 0.546875
24.1899 0.234375
24.2827 0.572917
24.3754 0.651042
24.4682 0.442708
24.5609 0.338542
24.6536 0.703125
24.7464 0.390625
24.8391 0.703125
24.9319 0.46875
25.0246 0.677083
25.1174 0.364583
25.2101 0.364583
25.3029 0.546875
25.3956 0.3125
25.4883 0.520833
25.5811 0.442708
25.6738 0.364583
25.7666 0.625
25.8593 0.416667
25.9521 0.625
26.0448 0.494792
26.1376 0.598958
26.2303 0.703125
26.323 0.703125
26.4158 0.416667
26.5085 0.572917
26.6013 0.677083
26.694 0.390625
26.7868 0.494792
26.8795 0.364583
26.9723 0.520833
27.065 0.572917
27.1577 0.546875
27.2505 0.416667
27.3432 0.494792
27.436 0.390625
27.5287 0.703125
27.6215 0.46875
27.7142 0.442708
27.807 0.390625
27.8997 0.390625
27.9924 0.286458
28.0852 0.442708
28.1779 0.338542
28.2707 0.442708
28.3634 0.520833
28.4562 0.416667
28.5489 0.494792
28.6417 0.390625
28.7344 0.3125
28.8271 0.572917
28.9199 0.338542
29.0126 0.885417
29.1054 0.729167
29.1981 0.911458
29.2909 1.09375
29.3836 0.703125
29.4764 1.22396
29.5691 2.5
29.6618 19.9219
29.7546 44.4531
29.8473 5.91146
29.9401 1.19792
30.0328 0.989583
30.1256 0.807292
30.2183 0.78125
30.3111 0.651042
30.4038 0.859375
30.4965 0.3125
30.5893 0.625
30.682 0.520833
30.7748 0.598958
30.8675 0.416667
30.9603 0.416667
31.053 0.338542
31.1458 0.416667
31.2385 0.546875
31.3312 0.3125
31.424 0.338542
31.5167 0.3125
31.6095 0.46875
31.7022 0.651042
31.795 0.520833
31.8877 0.364583
31.9805 0.651042
32.0732 0.546875
32.1659 0.416667
32.2587 0.520833
32.3514 0.416667
32.4442 0.364583
32.5369 0.416667
32.6297 0.494792
32.7224 0.546875
32.8152 0.208333
32.9079 0.286458
33.0007 0.364583
33.0934 0.234375
33.1861 0.520833
33.2789 0.130208
33.3716 0.3125
33.4644 0.416667
33.5571 0.208333
33.6499 0.416667
33.7426 0.390625
33.8354 0.416667
33.9281 0.3125
34.0208 0.390625
34.1136 0.416667
34.2063 0.416667
34.2991 0.364583
34.3918 0.416667
34.4846 0.286458
34.5773 0.442708
34.6701 0.46875
34.7628 0.286458
34.8555 0.494792
34.9483 0.546875
35.041 0.3125
35.1338 0.182292
35.2265 0.208333
35.3193 0.260417
35.412 0.338542
35.5048 0.416667
35.5975 0.208333
35.6902 0.390625
35.783 0.338542
35.8757 0.46875
35.9685 0.338542
36.0612 0.364583
36.154 0.3125
36.2467 0.390625
36.3395 0.416667
36.4322 0.338542
36.5249 0.260417
36.6177 0.286458
36.7104 0.677083
36.8032 0.677083
36.8959 0.286458
36.9887 0.3125
37.0814 0.286458
37.1742 1.35417
37.2669 0.677083
37.3596 0.520833
37.4524 0.520833
37.5451 0.46875
37.6379 0.442708
37.7306 0.286458
37.8234 0.364583
37.9161 0.390625
38.0089 0.390625
38.1016 0.234375
38.1943 0.416667
38.2871 0.260417
38.3798 0.3125
38.4726 0.364583
38.5653 0.520833
38.6581 0.703125
38.7508 1.06771
38.8436 0.729167
38.9363 0.442708
39.029 0.364583
39.1218 0.442708
39.2145 0.442708
39.3073 0.416667
39.4 0.260417
39.4928 0.182292
39.5855 0.338542
39.6783 0.416667
39.771 0.338542
39.8637 0.3125
39.9565 0.416667
40.0492 0.234375
40.142 0.390625
40.2347 0.572917
40.3275 0.390625
40.4202 0.260417
40.513 0.625
40.6057 0.572917
40.6984 1.25
40.7912 2.52604
40.8839 5.78125
40.9767 74.349
41.0694 39.7656
41.1622 3.67187
41.2549 1.51042
41.3477 0.625
41.4404 0.833333
41.5332 0.729167
41.6259 1.06771
41.7186 0.703125
41.8114 0.625
41.9041 0.625
41.9969 0.442708
42.0896 0.416667
42.1824 0.572917
42.2751 0.46875
42.3679 0.260417
42.4606 0.3125
42.5533 0.260417
42.6461 0.494792
42.7388 0.364583
42.8316 0.703125
42.9243 0.598958
43.0171 0.364583
43.1098 0.416667
43.2026 0.572917
43.2953 0.390625
43.388 0.572917
43.4808 1.11979
43.5735 1.30208
43.6663 0.572917
43.759 0.651042
43.8518 1.14583
43.9445 2.78646
44.0373 15
44.13 20.4167
44.2227 12.5
44.3155 1.90104
44.4082 0.989583
44.501 0.416667
44.5937 0.494792
44.6865 0.390625
44.7792 0.182292
44.872 0.390625
44.9647 0.546875
45.0574 0.46875
45.1502 0.286458
45.2429 0.286458
45.3357 0.3125
45.4284 0.364583
45.5212 0.390625
45.6139 0.520833
45.7067 0.3125
45.7994 0.260417
45.8921 0.234375
45.9849 0.260417
46.0776 0.520833
46.1704 0.390625
46.2631 0.390625
46.3559 0.546875
46.4486 0.46875
46.5414 0.46875
46.6341 0.364583
46.7268 0.338542
46.8196 0.520833
46.9123 0.234375
47.0051 0.442708
47.0978 0.260417
47.1906 0.442708
47.2833 0.234375
47.3761 0.286458
47.4688 0.364583
47.5615 0.260417
47.6543 0.104167
47.747 0.208333
47.8398 0.364583
47.9325 0.338542
48.0253 0.260417
48.118 0.3125
48.2108 0.260417
48.3035 0.390625
48.3962 0.3125
48.489 0.208333
48.5817 0.338542
48.6745 0.494792
48.7672 0.651042
48.86 0.46875
48.9527 0.234375
49.0455 0.208333
49.1382 0.208333
49.2309 0.3125
49.3237 0.598958
49.4164 0.755208
49.5092 0.598958
49.6019 0.46875
49.6947 0.46875
49.7874 0.442708
49.8802 0.546875
49.9729 0.46875
50.0656 0.572917
50.1584 0.572917
50.2511 0.625
50.3439 0.833333
50.4366 1.79687
50.5294 2.83854
50.6221 8.48958
50.7149 81.5885
50.8076 33.125
50.9004 12.7083
50.9931 2.34375
51.0858 1.09375
51.1786 0.885417
51.2713 0.729167
51.3641 0.520833
51.4568 0.78125
51.5496 0.390625
51.6423 0.520833
51.7351 0.677083
51.8278 0.442708
51.9205 1.22396
52.0133 0.885417
52.106 0.46875
52.1988 0.416667
52.2915 0.286458
52.3843 0.364583
52.477 0.546875
52.5698 0.3125
52.6625 0.390625
52.7552 0.390625
52.848 0.494792
52.9407 0.260417
53.0335 0.546875
53.1262 0.442708
53.219 0.338542
53.3117 0.260417
53.4045 0.3125
53.4972 0.364583
53.5899 0.625
53.6827 0.755208
53.7754 0.703125
53.8682 0.390625
53.9609 0.3125
54.0537 0.598958
54.1464 0.885417
54.2392 1.22396
54.3319 0.364583
54.4246 0.338542
54.5174 0.234375
54.6101 0.260417
54.7029 0.260417
54.7956 0.677083
54.8884 0.703125
54.9811 0.546875
55.0739 0.3125
55.1666 0.494792
55.2593 0.260417
55.3521 0.208333
55.4448 0.416667
55.5376 0.3125
55.6303 0.390625
55.7231 0.234375
55.8158 0.208333
55.9086 0.3125
56.0013 0.442708
56.094 0.3125
56.1868 0.130208
56.2795 0.260417
56.3723 0.208333
56.465 0.364583
56.5578 0.260417
56.6505 0.286458
56.7433 0.364583
56.836 0.234375
56.9287 0.260417
57.0215 0.364583
57.1142 0.364583
57.207 0.286458
57.2997 0.260417
57.3925 0.416667
57.4852 0.286458
57.578 0.260417
57.6707 0.234375
57.7634 0.260417
57.8562 0.130208
57.9489 0.078125
58.0417 0.520833
58.1344 0.46875
58.2272 0.208333
58.3199 0.182292
58.4127 0.364583
58.5054 0.260417
58.5981 0.182292
58.6909 0.208333
58.7836 0.286458
58.8764 0.182292
58.9691 0.182292
59.0619 0.364583
59.1546 0.234375
59.2474 0.260417
59.3401 0.182292
59.4329 0.286458
59.5256 0.286458
59.6183 0.234375
59.7111 0.15625
59.8038 0.15625
59.8966 0.182292
59.9893 0.286458
60.0821 0.3125
60.1748 0.442708
60.2676 0.182292
60.3603 0.364583
60.453 0.260417
60.5458 0.338542
60.6385 0.15625
60.7313 0.286458
60.824 0.15625
60.9168 0.46875
61.0095 0.286458
61.1023 0.546875
61.195 0.338542
61.2877 0.390625
61.3805 0.703125
61.4732 0.729167
61.566 1.14583
61.6587 2.34375
61.7515 16.1458
61.8442 17.8385
61.937 19.3229
62.0297 4.32292
62.1224 1.48437
62.2152 0.911458
62.3079 0.651042
62.4007 0.520833
62.4934 0.442708
62.5862 0.208333
62.6789 0.494792
62.7717 0.390625
62.8644 0.338542
62.9571 0.208333
63.0499 0.234375
63.1426 0.260417
63.2354 0.338542
63.3281 0.15625
63.4209 0.364583
63.5136 0.286458
63.6064 0.364583
63.6991 0.260417
63.7918 0.182292
63.8846 0.234375
63.9773 0.260417
64.0701 0.260417
64.1628 0.15625
64.2556 0.390625
64.3483 0.286458
64.4411 0.286458
64.5338 0.234375
64.6265 0.3125
64.7193 0.338542
64.812 0.3125
64.9048 0.338542
64.9975 0.182292
65.0903 0.208333
65.183 0.234375
65.2758 0.364583
65.3685 0.390625
65.4612 0.15625
65.554 0.208333
65.6467 0.234375
65.7395 0.338542
65.8322 0.15625
65.925 0.390625
66.0177 0.3125
66.1105 0.234375
66.2032 0.390625
66.2959 0.390625
66.3887 0.338542
66.4814 0.416667
66.5742 0.234375
66.6669 0.46875
66.7597 0.364583
66.8524 0.338542
66.9452 0.390625
67.0379 0.598958
67.1306 0.598958
67.2234 0.625
67.3161 0.46875
67.4089 1.11979
67.5016 1.51042
67.5944 2.00521
67.6871 3.54167
67.7799 17.3437
67.8726 41.276
67.9653 17.9687
68.0581 14.5312
68.1508 3.28125
68.2436 1.40625
68.3363 0.677083
68.4291 0.494792
68.5218 0.729167
68.6146 0.286458
68.7073 0.494792
68.8001 0.546875
68.8928 0.390625
68.9855 0.234375
69.0783 0.442708
69.171 0.286458
69.2638 0.260417
69.3565 0.572917
69.4493 0.546875
69.542 0.546875
69.6348 0.442708
69.7275 0.442708
69.8202 0.208333
69.913 0.390625
70.0057 0.286458
70.0985 0.338542
70.1912 0.494792
70.284 0.338542
70.3767 0.494792
70.4695 0.520833
70.5622 1.69271
70.6549 1.25
70.7477 0.963542
70.8404 0.807292
70.9332 0.494792
71.0259 0.442708
71.1187 0.442708
71.2114 0.286458
71.3042 0.260417
71.3969 0.338542
71.4896 0.234375
71.5824 0.104167
71.6751 0.260417
71.7679 0.416667
71.8606 0.651042
71.9534 0.572917
72.0461 0.338542
72.1389 0.260417
72.2316 0.703125
72.3243 2.78646
72.4171 1.43229
72.5098 4.86979
72.6026 2.39583
72.6953 2.39583
72.7881 1.22396
72.8808 0.598958
72.9736 0.442708
73.0663 0.130208
73.159 0.234375
73.2518 0.208333
73.3445 0.234375
73.4373 0.182292
73.53 0.182292
73.6228 0.234375
73.7155 0.286458
73.8083 0.416667
73.901 0.3125
73.9937 0.3125
74.0865 0.3125
74.1792 0.286458
74.272 0.182292
74.3647 0.442708
74.4575 0.286458
74.5502 0.364583
74.643 0.260417
74.7357 0.3125
74.8284 0.442708
74.9212 0.15625
75.0139 0.208333
75.1067 0.286458
75.1994 0.364583
75.2922 0.260417
75.3849 0.182292
75.4777 0.234375
75.5704 0.234375
75.6631 0.15625
75.7559 0.260417
75.8486 0.338542
75.9414 0.208333
76.0341 0.208333
76.1269 0.182292
76.2196 0.338542
76.3124 0.182292
76.4051 0.3125
76.4978 0.390625
76.5906 0.208333
76.6833 0.338542
76.7761 0.208333
76.8688 0.416667
76.9616 0.3125
77.0543 0.15625
77.1471 0.338542
77.2398 0.46875
77.3326 0.520833
77.4253 0.208333
77.518 0.234375
77.6108 0.390625
77.7035 0.416667
77.7963 0.260417
77.889 0.416667
77.9818 0.390625
78.0745 0.286458
78.1673 0.46875
78.26 0.338542
78.3527 0.703125
78.4455 0.520833
78.5382 0.78125
78.631 0.729167
78.7237 0.807292
78.8165 0.833333
78.9092 2.63021
79.002 13.5937
79.0947 15.8854
79.1874 6.92708
79.2802 11.5885
79.3729 2.73437
79.4657 2.73437
79.5584 0.9375
79.6512 1.01562
79.7439 0.833333
79.8367 0.572917
79.9294 0.46875
80.0221 0.442708
80.1149 0.338542
80.2076 0.598958
80.3004 0.442708
80.3931 0.286458
80.4859 0.546875
80.5786 0.651042
80.6714 0.78125
80.7641 1.09375
80.8568 1.30208
80.9496 2.05729
81.0423 3.85417
81.1351 16.6406
81.2278 23.776
81.3206 8.95833
81.4133 19.6875
81.5061 3.72396
81.5988 1.38021
81.6915 0.729167
81.7843 0.859375
81.877 0.625
81.9698 0.625
82.0625 0.494792
82.1553 0.572917
82.248 0.703125
82.3408 0.416667
82.4335 0.546875
82.5262 0.338542
82.619 0.3125
82.7117 0.260417
82.8045 0.286458
82.8972 0.286458
82.99 0.260417
83.0827 0.46875
83.1755 0.520833
83.2682 0.416667
83.3609 0.416667
83.4537 0.338542
83.5464 0.364583
83.6392 0.338542
83.7319 0.338542
83.8247 0.390625
83.9174 0.364583
84.0102 1.25
84.1029 0.3125
84.1956 0.598958
84.2884 0.442708
84.3811 0.390625
84.4739 0.442708
84.5666 0.338542
84.6594 0.390625
84.7521 0.3125
84.8449 0.234375
84.9376 0.442708
85.0303 0.260417
85.1231 0.286458
85.2158 0.208333
85.3086 0.260417
85.4013 0.234375
85.4941 0.416667
85.5868 0.260417
85.6796 0.15625
85.7723 0.390625
85.8651 0.286458
85.9578 0.3125
86.0505 0.260417
86.1433 0.15625
86.236 0.46875
86.3288 0.416667
86.4215 0.364583
86.5143 0.234375
86.607 0.130208
86.6998 0.182292
86.7925 0.130208
86.8852 0.286458
86.978 0.3125
87.0707 0.260417
87.1635 0.3125
87.2562 0.286458
87.349 0.130208
87.4417 0.182292
87.5345 0.260417
87.6272 0.494792
87.7199 0.338542
87.8127 0.234375
87.9054 0.3125
87.9982 0.234375
88.0909 0.260417
88.1837 0.130208
88.2764 0.182292
88.3692 0.234375
88.4619 0.3125
88.5546 0.286458
88.6474 0.208333
88.7401 0.3125
88.8329 0.364583
88.9256 0.755208
89.0184 0.885417
89.1111 0.338542
89.2039 0.859375
89.2966 0.416667
89.3893 0.546875
89.4821 0.15625
89.5748 0.286458
89.6676 0.15625
89.7603 0.390625
89.8531 0.286458
89.9458 0.3125
90.0386 0.208333
90.1313 0.15625
90.224 0.208333
90.3168 0.260417
90.4095 0.208333
90.5023 0.208333
90.595 0.234375
90.6878 0.46875
90.7805 0.364583
90.8733 0.234375
90.966 0.182292
91.0587 0.3125
91.1515 0.234375
91.2442 0.286458
91.337 0.234375
91.4297 0.390625
91.5225 0.364583
91.6152 0.442708
91.708 0.46875
91.8007 0.46875
91.8934 0.46875
91.9862 0.442708
92.0789 0.625
92.1717 0.729167
92.2644 1.875
92.3572 8.41146
92.4499 3.75
92.5427 2.26562
92.6354 5.13021
92.7281 1.97917
92.8209 4.84375
92.9136 2.44792
93.0064 1.48437
93.0991 2.36979
93.1919 1.11979
93.2846 0.520833
93.3774 0.729167
93.4701 0.286458
93.5628 0.520833
93.6556 0.260417
93.7483 0.182292
93.8411 0.130208
93.9338 0.208333
94.0266 0.3125
94.1193 0.182292
94.2121 0.286458
94.3048 0.364583
94.3975 0.3125
94.4903 0.208333
94.583 0.182292
94.6758 0.338542
94.7685 0.234375
94.8613 0.3125
94.954 0.260417
95.0468 0.234375
95.1395 0.260417
95.2323 0.260417
95.325 0.416667
95.4177 0.208333
95.5105 0.260417
95.6032 0.3125
95.696 0.416667
95.7887 0.46875
95.8815 0.546875
95.9742 0.15625
96.067 0.390625
96.1597 0.182292
96.2524 0.208333
96.3452 0.286458
96.4379 0.182292
96.5307 0.364583
96.6234 0.130208
96.7162 0.338542
96.8089 0.364583
96.9017 0.338542
96.9944 0.520833
97.0871 0.651042
97.1799 0.677083
97.2726 0.885417
97.3654 2.13542
97.4581 5.54687
97.5509 2.16146
97.6436 1.84896
97.7364 2.68229
97.8291 1.01562
97.9218 0.416667
98.0146 0.442708
98.1073 0.15625
98.2001 0.364583
98.2928 0.286458
98.3856 0.15625
98.4783 0.338542
98.5711 0.416667
98.6638 0.416667
98.7565 0.286458
98.8493 0.286458
98.942 0.520833
99.0348 0.130208
99.1275 0.338542
99.2203 0.3125
99.313 0.286458
99.4058 0.286458
99.4985 0.234375
99.5912 0.208333
99.684 0.260417
99.7767 0.286458
99.8695 0.182292
99.9622 0.130208
100.055 0.234375
100.148 0.338542
100.24 0.286458
100.333 0.208333
100.426 0.260417
100.519 0.364583
100.611 0.338542
100.704 0.286458
100.797 0.390625
100.89 0.9375
100.982 0.572917
101.075 0.260417
101.168 0.625
101.261 0.234375
101.353 0.546875
101.446 0.364583
101.539 0.364583
101.632 0.260417
101.724 0.286458
101.817 0.390625
101.91 0.3125
102.003 0.286458
102.095 0.208333
102.188 0.46875
102.281 0.807292
102.374 2.39583
102.466 2.1875
102.559 0.859375
102.652 1.17187
102.745 1.71875
102.837 0.651042
102.93 0.416667
103.023 0.260417
103.116 0.260417
103.208 0.416667
103.301 0.442708
103.394 0.3125
103.487 0.390625
103.579 0.416667
103.672 0.286458
103.765 0.416667
103.857 0.677083
103.95 0.208333
104.043 0.416667
104.136 0.3125
104.228 0.260417
104.321 0.338542
104.414 0.520833
104.507 0.364583
104.599 0.260417
104.692 0.234375
104.785 0.364583
104.878 0.46875
104.97 0.703125
105.063 0.833333
105.156 2.70833
105.249 1.97917
105.341 2.03125
105.434 2.39583
105.527 2.26562
105.62 0.885417
105.712 1.11979
105.805 0.859375
105.898 0.625
105.991 0.338542
106.083 0.598958
106.176 0.3125
106.269 0.104167
106.362 0.338542
106.454 0.338542
106.547 0.338542
106.64 0.182292
106.733 0.234375
106.825 0.286458
106.918 0.208333
107.011 0.260417
107.104 0.3125
107.196 0.234375
107.289 0.338542
107.382 0.3125
107.475 0.182292
107.567 0.234375
107.66 0.234375
107.753 0.286458
107.846 0.234375
107.938 0.390625
108.031 0.364583
108.124 0.234375
108.216 0.494792
108.309 0.130208
108.402 0.390625
108.495 0.46875
108.587 0.598958
108.68 0.859375
108.773 0.963542
108.866 2.5
108.958 3.69792
109.051 1.71875
109.144 1.32812
109.237 2.31771
109.329 1.61458
109.422 0.963542
109.515 0.46875
109.608 0.46875
109.7 0.3125
109.793 0.338542
109.886 0.234375
109.979 0.46875
110.071 0.364583
110.164 0.260417
110.257 0.260417
110.35 0.390625
110.442 0.390625
110.535 0.182292
110.628 0.208333
110.721 0.286458
110.813 0.286458
110.906 0.182292
110.999 0.15625
111.092 0.364583
111.184 0.520833
111.277 0.625
111.37 1.32812
111.463 0.703125
111.555 0.572917
111.648 0.677083
111.741 1.09375
111.834 0.859375
111.926 1.875
112.019 5.52083
112.112 5.18229
112.205 2.26562
112.297 1.71875
112.39 3.35937
112.483 3.30729
112.575 1.25
112.668 0.78125
112.761 0.46875
112.854 0.286458
112.946 0.3125
113.039 0.442708
113.132 0.390625
113.225 0.286458
113.317 0.494792
113.41 0.260417
113.503 0.494792
113.596 0.260417
113.688 0.15625
113.781 0.3125
113.874 0.520833
113.967 0.442708
114.059 0.390625
114.152 0.364583
114.245 0.286458
114.338 0.260417
114.43 0.364583
114.523 0.390625
114.616 0.338542
114.709 0.338542
114.801 0.46875
114.894 0.3125
114.987 0.338542
115.08 0.260417
115.172 0.46875
115.265 0.46875
115.358 0.234375
115.451 0.390625
115.543 0.390625
115.636 0.260417
115.729 0.442708
115.822 0.234375
115.914 0.416667
116.007 0.130208
116.1 0.260417
116.193 0.15625
116.285 0.3125
116.378 0.208333
116.471 0.442708
116.563 0.364583
116.656 0.416667
116.749 0.260417
116.842 0.546875
116.934 0.3125
117.027 0.338542
117.12 0.442708
117.213 0.338542
117.305 0.442708
117.398 0.46875
117.491 0.677083
117.584 0.755208
117.676 1.01562
117.769 1.19792
117.862 1.92708
117.955 1.95312
118.047 6.58854
118.14 11.9271
118.233 4.21875
118.326 2.8125
118.418 2.63021
118.511 6.64062
118.604 3.02083
118.697 1.51042
118.789 1.06771
118.882 0.625
118.975 0.885417
119.068 0.494792
119.16 0.416667
119.253 0.338542
119.346 0.546875
119.439 0.572917
119.531 0.286458
119.624 0.338542
119.717 0.625
119.81 0.416667
119.902 0.390625
119.995 0.234375
120.088 0.390625
120.181 0.3125
120.273 0.286458
120.366 0.390625
120.459 0.546875
120.552 0.46875
120.644 0.598958
120.737 0.572917
120.83 0.572917
120.922 0.338542
121.015 0.442708
121.108 0.208333
121.201 0.3125
121.293 0.494792
121.386 0.364583
121.479 0.364583
121.572 0.3125
121.664 0.390625
121.757 0.338542
121.85 0.182292
121.943 0.442708
122.035 0.416667
122.128 0.390625
122.221 0.442708
122.314 0.46875
122.406 0.390625
122.499 0.390625
122.592 0.3125
122.685 0.286458
122.777 0.46875
122.87 0.833333
122.963 2.23958
123.056 2.1875
123.148 0.833333
123.241 0.677083
123.334 0.651042
123.427 1.25
123.519 1.01562
123.612 0.78125
123.705 0.520833
123.798 0.338542
123.89 0.416667
123.983 0.338542
124.076 0.546875
124.169 0.260417
124.261 0.338542
124.354 0.260417
124.447 0.208333
124.54 0.390625
124.632 0.338542
124.725 0.46875
124.818 0.3125
124.911 0.182292
125.003 0.416667
125.096 0.208333
125.189 0.364583
125.281 0.364583
125.374 0.442708
125.467 0.46875
125.56 0.286458
125.652 0.442708
125.745 0.260417
125.838 0.338542
125.931 0.442708
126.023 0.546875
126.116 0.364583
126.209 0.364583
126.302 0.520833
126.394 0.390625
126.487 0.520833
126.58 0.416667
126.673 0.520833
126.765 0.572917
126.858 0.703125
126.951 0.520833
127.044 0.989583
127.136 1.27604
127.229 2.31771
127.322 6.97917
127.415 8.15104
127.507 3.95833
127.6 2.26562
127.693 1.71875
127.786 2.76042
127.878 5.44271
127.971 3.07292
128.064 1.71875
128.157 1.06771
128.249 0.833333
128.342 0.703125
128.435 0.755208
128.528 0.494792
128.62 0.520833
128.713 0.416667
128.806 0.3125
128.899 0.494792
128.991 0.3125
129.084 0.390625
129.177 0.572917
129.27 0.416667
129.362 0.364583
129.455 0.651042
129.548 0.755208
129.64 0.364583
129.733 0.416667
129.826 0.390625
129.919 0.572917
130.011 0.286458
130.104 0.286458
130.197 0.546875
130.29 0.651042
130.382 0.546875
130.475 0.572917
130.568 0.442708
130.661 0.546875
130.753 0.546875
130.846 0.494792
130.939 0.598958
131.032 0.78125
131.124 1.875
131.217 2.73437
131.31 1.64062
131.403 0.963542
131.495 0.729167
131.588 0.572917
131.681 1.17187
131.774 1.25
131.866 1.01562
131.959 0.651042
132.052 0.442708
132.145 0.416667
132.237 0.390625
132.33 0.3125
132.423 0.364583
132.516 0.520833
132.608 0.364583
132.701 0.260417
132.794 0.520833
132.887 0.364583
132.979 0.442708
133.072 0.520833
133.165 0.442708
133.258 0.286458
133.35 0.338542
133.443 0.338542
133.536 0.677083
133.628 0.598958
133.721 0.572917
133.814 0.46875
133.907 0.442708
133.999 0.572917
134.092 0.46875
134.185 0.442708
134.278 0.416667
134.37 0.260417
134.463 0.729167
134.556 0.442708
134.649 0.572917
134.741 0.625
134.834 0.390625
134.927 0.520833
135.02 0.286458
135.112 0.442708
135.205 0.208333
135.298 0.494792
135.391 0.46875
135.483 0.442708
135.576 0.3125
135.669 0.208333
135.762 0.3125
135.854 0.520833
135.947 0.234375
136.04 0.416667
136.133 0.390625
136.225 0.416667
136.318 0.572917
136.411 0.494792
136.504 0.3125
136.596 0.598958
136.689 0.234375
136.782 0.494792
136.875 0.416667
136.967 0.442708
137.06 0.390625
137.153 0.677083
137.246 0.442708
137.338 0.338542
137.431 0.338542
137.524 0.286458
137.617 0.3125
137.709 0.546875
137.802 0.520833
137.895 0.338542
137.987 0.46875
138.08 0.598958
138.173 0.46875
138.266 0.338542
138.358 0.442708
138.451 0.364583
138.544 0.364583
138.637 0.364583
138.729 0.3125
138.822 0.46875
138.915 0.338542
139.008 0.416667
139.1 0.416667
139.193 0.442708
139.286 0.416667
139.379 0.390625
139.471 0.546875
139.564 0.338542
139.657 0.390625
139.75 0.494792
139.842 0.572917
139.935 0.651042
139.997 0.494792