File: XRD_scan_data/Al2O3_Mesh 150 (75 to 106 microns)_1.xy
'Id: "" Comment: "" Operator: "Lab Manager" Anode: "Co" Scantype: "Coupled TwoTheta/Theta" TimePerStep: "38.4"
10 4.24479
10.0927 4.79167
10.1855 4.21875
10.2782 5.15625
10.371 4.47917
10.4637 4.27083
10.5565 4.81771
10.6492 4.55729
10.742 4.6875
10.8347 4.53125
10.9274 4.32292
11.0202 4.97396
11.1129 4.84375
11.2057 4.42708
11.2984 4.63542
11.3912 4.32292
11.4839 4.55729
11.5767 4.08854
11.6694 4.63542
11.7621 5.3125
11.8549 4.92187
11.9476 4.86979
12.0404 4.81771
12.1331 4.66146
12.2259 5.13021
12.3186 5.05208
12.4114 5.36458
12.5041 4.84375
12.5968 5.70312
12.6896 4.76562
12.7823 4.92187
12.8751 5.46875
12.9678 5.57292
13.0606 4.76562
13.1533 5.39062
13.2461 5.05208
13.3388 4.81771
13.4315 5.05208
13.5243 5.33854
13.617 5.91146
13.7098 4.97396
13.8025 5.07812
13.8953 5.18229
13.988 5.625
14.0808 5.54687
14.1735 5.36458
14.2662 5.18229
14.359 5.10417
14.4517 4.66146
14.5445 5.49479
14.6372 5.3125
14.73 5.72917
14.8227 5.36458
14.9155 5.02604
15.0082 4.60937
15.101 5.23437
15.1937 5.02604
15.2864 4.66146
15.3792 4.89583
15.4719 4.76562
15.5647 4.84375
15.6574 5.20833
15.7502 4.76562
15.8429 4.6875
15.9357 4.14062
16.0284 4.47917
16.1211 4.58333
16.2139 4.08854
16.3066 4.11458
16.3994 4.03646
16.4921 4.14062
16.5849 3.61979
16.6776 3.54167
16.7704 4.03646
16.8631 3.95833
16.9558 3.85417
17.0486 4.0625
17.1413 3.95833
17.2341 3.80208
17.3268 4.16667
17.4196 4.34896
17.5123 4.71354
17.6051 4.34896
17.6978 4.71354
17.7905 3.64583
17.8833 3.85417
17.976 3.59375
18.0688 3.59375
18.1615 3.56771
18.2543 3.25521
18.347 3.22917
18.4398 3.30729
18.5325 3.22917
18.6252 3.59375
18.718 3.125
18.8107 3.59375
18.9035 2.63021
18.9962 2.91667
19.089 3.20312
19.1817 2.70833
19.2745 2.91667
19.3672 2.57812
19.4599 2.91667
19.5527 2.26562
19.6454 2.63021
19.7382 2.65625
19.8309 2.8125
19.9237 2.89062
20.0164 2.44792
20.1092 2.57812
20.2019 2.60417
20.2946 2.55208
20.3874 2.57812
20.4801 2.91667
20.5729 2.03125
20.6656 2.65625
20.7584 2.13542
20.8511 2.63021
20.9439 1.92708
21.0366 2.1875
21.1293 2.00521
21.2221 2.21354
21.3148 1.92708
21.4076 2.1875
21.5003 2.29167
21.5931 1.79687
21.6858 2.1875
21.7786 1.64062
21.8713 1.84896
21.964 1.64062
22.0568 1.77083
22.1495 1.53646
22.2423 1.40625
22.335 1.66667
22.4278 1.61458
22.5205 1.66667
22.6133 1.77083
22.706 1.69271
22.7987 1.58854
22.8915 1.61458
22.9842 1.48437
23.077 1.01562
23.1697 1.01562
23.2625 1.45833
23.3552 1.04167
23.448 1.74479
23.5407 1.01562
23.6335 1.17187
23.7262 1.09375
23.8189 1.06771
23.9117 1.25
24.0044 1.01562
24.0972 1.19792
24.1899 0.911458
24.2827 0.989583
24.3754 0.885417
24.4682 0.989583
24.5609 0.859375
24.6536 1.11979
24.7464 1.35417
24.8391 1.11979
24.9319 1.09375
25.0246 0.963542
25.1174 0.911458
25.2101 0.859375
25.3029 0.989583
25.3956 1.19792
25.4883 0.885417
25.5811 0.651042
25.6738 0.833333
25.7666 1.01562
25.8593 0.833333
25.9521 0.963542
26.0448 0.78125
26.1376 0.989583
26.2303 0.651042
26.323 0.807292
26.4158 0.625
26.5085 0.755208
26.6013 0.651042
26.694 0.651042
26.7868 0.546875
26.8795 0.677083
26.9723 0.833333
27.065 0.546875
27.1577 0.677083
27.2505 0.9375
27.3432 0.677083
27.436 0.546875
27.5287 0.651042
27.6215 1.04167
27.7142 0.703125
27.807 0.572917
27.8997 0.729167
27.9924 0.520833
28.0852 0.729167
28.1779 0.677083
28.2707 0.572917
28.3634 0.520833
28.4562 0.598958
28.5489 0.911458
28.6417 0.442708
28.7344 0.677083
28.8271 0.885417
28.9199 1.32812
29.0126 3.80208
29.1054 10.0781
29.1981 22.0573
29.2909 18.4635
29.3836 4.79167
29.4764 1.17187
29.5691 0.625
29.6618 0.78125
29.7546 0.651042
29.8473 0.546875
29.9401 0.494792
30.0328 0.625
30.1256 0.78125
30.2183 0.598958
30.3111 0.494792
30.4038 0.651042
30.4965 0.572917
30.5893 0.651042
30.682 0.416667
30.7748 0.625
30.8675 0.703125
30.9603 0.755208
31.053 0.546875
31.1458 0.494792
31.2385 0.46875
31.3312 0.677083
31.424 0.46875
31.5167 0.729167
31.6095 0.989583
31.7022 0.598958
31.795 0.442708
31.8877 0.416667
31.9805 0.442708
32.0732 0.598958
32.1659 0.494792
32.2587 0.46875
32.3514 0.390625
32.4442 0.703125
32.5369 0.651042
32.6297 0.494792
32.7224 0.520833
32.8152 0.546875
32.9079 0.260417
33.0007 0.416667
33.0934 0.625
33.1861 0.46875
33.2789 0.416667
33.3716 0.546875
33.4644 0.520833
33.5571 0.546875
33.6499 0.416667
33.7426 0.416667
33.8354 0.625
33.9281 0.651042
34.0208 0.364583
34.1136 0.416667
34.2063 0.755208
34.2991 0.338542
34.3918 0.494792
34.4846 0.546875
34.5773 0.598958
34.6701 0.755208
34.7628 0.390625
34.8555 0.338542
34.9483 0.546875
35.041 0.208333
35.1338 0.494792
35.2265 0.520833
35.3193 0.286458
35.412 0.442708
35.5048 0.390625
35.5975 0.442708
35.6902 0.520833
35.783 0.494792
35.8757 0.3125
35.9685 0.46875
36.0612 0.46875
36.154 0.46875
36.2467 0.651042
36.3395 0.78125
36.4322 0.598958
36.5249 0.46875
36.6177 0.494792
36.7104 1.01562
36.8032 0.677083
36.8959 0.46875
36.9887 0.442708
37.0814 0.651042
37.1742 0.390625
37.2669 0.364583
37.3596 0.677083
37.4524 0.442708
37.5451 0.416667
37.6379 0.442708
37.7306 0.364583
37.8234 0.494792
37.9161 0.546875
38.0089 0.651042
38.1016 0.729167
38.1943 1.51042
38.2871 2.78646
38.3798 1.74479
38.4726 0.651042
38.5653 0.520833
38.6581 0.416667
38.7508 0.546875
38.8436 0.416667
38.9363 0.364583
39.029 0.703125
39.1218 0.703125
39.2145 0.416667
39.3073 0.390625
39.4 0.416667
39.4928 0.494792
39.5855 0.286458
39.6783 0.442708
39.771 0.416667
39.8637 0.416667
39.9565 0.364583
40.0492 0.390625
40.142 0.520833
40.2347 0.729167
40.3275 2.26562
40.4202 7.89062
40.513 16.0937
40.6057 8.64583
40.6984 1.77083
40.7912 0.677083
40.8839 0.625
40.9767 0.546875
41.0694 0.520833
41.1622 3.17708
41.2549 3.28125
41.3477 1.53646
41.4404 0.520833
41.5332 0.520833
41.6259 0.494792
41.7186 0.442708
41.8114 0.651042
41.9041 0.442708
41.9969 0.520833
42.0896 0.3125
42.1824 0.286458
42.2751 0.598958
42.3679 0.859375
42.4606 0.677083
42.5533 0.416667
42.6461 0.520833
42.7388 0.520833
42.8316 0.46875
42.9243 0.572917
43.0171 0.807292
43.1098 0.46875
43.2026 0.390625
43.2953 0.338542
43.388 0.911458
43.4808 3.25521
43.5735 14.5573
43.6663 9.66146
43.759 3.64583
43.8518 1.14583
43.9445 0.546875
44.0373 0.546875
44.13 0.625
44.2227 0.260417
44.3155 0.364583
44.4082 0.546875
44.501 0.338542
44.5937 0.260417
44.6865 0.3125
44.7792 0.3125
44.872 0.390625
44.9647 0.651042
45.0574 0.46875
45.1502 0.442708
45.2429 0.286458
45.3357 0.442708
45.4284 0.3125
45.5212 0.260417
45.6139 0.3125
45.7067 0.3125
45.7994 0.703125
45.8921 0.338542
45.9849 0.46875
46.0776 0.46875
46.1704 0.78125
46.2631 0.833333
46.3559 0.625
46.4486 0.546875
46.5414 0.442708
46.6341 0.338542
46.7268 0.46875
46.8196 0.494792
46.9123 0.416667
47.0051 0.182292
47.0978 0.260417
47.1906 0.234375
47.2833 0.390625
47.3761 0.260417
47.4688 0.390625
47.5615 0.364583
47.6543 0.234375
47.747 0.494792
47.8398 0.390625
47.9325 0.234375
48.0253 0.260417
48.118 0.286458
48.2108 0.494792
48.3035 0.494792
48.3962 0.416667
48.489 0.416667
48.5817 0.390625
48.6745 0.390625
48.7672 0.546875
48.86 0.755208
48.9527 1.19792
49.0455 1.35417
49.1382 0.416667
49.2309 0.364583
49.3237 0.494792
49.4164 0.494792
49.5092 0.494792
49.6019 0.572917
49.6947 0.494792
49.7874 0.46875
49.8802 0.46875
49.9729 1.09375
50.0656 2.47396
50.1584 8.59375
50.2511 31.4844
50.3439 32.2917
50.4366 15.2083
50.5294 2.10937
50.6221 0.911458
50.7149 0.572917
50.8076 0.546875
50.9004 0.598958
50.9931 0.494792
51.0858 0.703125
51.1786 0.390625
51.2713 0.442708
51.3641 0.598958
51.4568 1.64062
51.5496 1.01562
51.6423 0.677083
51.7351 0.494792
51.8278 0.234375
51.9205 0.442708
52.0133 0.494792
52.106 0.208333
52.1988 0.260417
52.2915 0.338542
52.3843 0.130208
52.477 0.260417
52.5698 0.338542
52.6625 0.286458
52.7552 0.286458
52.848 0.182292
52.9407 0.286458
53.0335 0.338542
53.1262 0.338542
53.219 0.572917
53.3117 0.364583
53.4045 0.3125
53.4972 0.364583
53.5899 0.598958
53.6827 0.729167
53.7754 0.46875
53.8682 0.364583
53.9609 0.390625
54.0537 0.442708
54.1464 0.3125
54.2392 0.572917
54.3319 0.78125
54.4246 0.885417
54.5174 0.234375
54.6101 0.364583
54.7029 0.364583
54.7956 0.338542
54.8884 0.364583
54.9811 0.286458
55.0739 0.260417
55.1666 0.3125
55.2593 0.338542
55.3521 0.208333
55.4448 0.260417
55.5376 0.364583
55.6303 0.234375
55.7231 0.286458
55.8158 0.286458
55.9086 0.260417
56.0013 0.260417
56.094 0.208333
56.1868 0.390625
56.2795 0.260417
56.3723 0.364583
56.465 0.260417
56.5578 0.286458
56.6505 0.260417
56.7433 0.234375
56.836 0.364583
56.9287 0.104167
57.0215 0.286458
57.1142 0.286458
57.207 0.182292
57.2997 0.338542
57.3925 0.286458
57.4852 0.78125
57.578 0.364583
57.6707 0.364583
57.7634 0.416667
57.8562 0.3125
57.9489 0.3125
58.0417 0.3125
58.1344 0.442708
58.2272 0.442708
58.3199 0.182292
58.4127 0.104167
58.5054 0.286458
58.5981 0.3125
58.6909 0.416667
58.7836 0.15625
58.8764 0.234375
58.9691 0.364583
59.0619 0.260417
59.1546 0.338542
59.2474 0.234375
59.3401 0.208333
59.4329 0.15625
59.5256 0.416667
59.6183 0.286458
59.7111 0.3125
59.8038 0.260417
59.8966 0.234375
59.9893 0.338542
60.0821 0.260417
60.1748 0.416667
60.2676 0.364583
60.3603 0.208333
60.453 0.416667
60.5458 0.364583
60.6385 0.390625
60.7313 0.260417
60.824 0.286458
60.9168 0.364583
61.0095 0.677083
61.1023 0.78125
61.195 1.84896
61.2877 9.50521
61.3805 15.4687
61.4732 11.3542
61.566 7.29167
61.6587 1.27604
61.7515 0.885417
61.8442 0.416667
61.937 0.286458
62.0297 0.338542
62.1224 0.234375
62.2152 0.416667
62.3079 0.182292
62.4007 0.15625
62.4934 0.338542
62.5862 0.182292
62.6789 0.416667
62.7717 0.208333
62.8644 0.130208
62.9571 0.234375
63.0499 0.3125
63.1426 0.286458
63.2354 0.234375
63.3281 0.234375
63.4209 0.182292
63.5136 0.208333
63.6064 0.286458
63.6991 0.208333
63.7918 0.3125
63.8846 0.078125
63.9773 0.208333
64.0701 0.260417
64.1628 0.338542
64.2556 0.260417
64.3483 0.338542
64.4411 0.208333
64.5338 0.416667
64.6265 0.3125
64.7193 0.234375
64.812 0.442708
64.9048 0.625
64.9975 0.390625
65.0903 0.46875
65.183 0.15625
65.2758 0.182292
65.3685 0.182292
65.4612 0.234375
65.554 0.260417
65.6467 0.260417
65.7395 0.260417
65.8322 0.15625
65.925 0.260417
66.0177 0.208333
66.1105 0.416667
66.2032 0.3125
66.2959 0.286458
66.3887 0.260417
66.4814 0.286458
66.5742 0.625
66.6669 0.520833
66.7597 0.703125
66.8524 0.390625
66.9452 0.546875
67.0379 0.677083
67.1306 1.14583
67.2234 1.35417
67.3161 6.45833
67.4089 25.9896
67.5016 17.526
67.5944 22.526
67.6871 5.625
67.7799 1.45833
67.8726 0.989583
67.9653 0.729167
68.0581 0.46875
68.1508 0.390625
68.2436 0.260417
68.3363 0.338542
68.4291 0.46875
68.5218 0.260417
68.6146 0.364583
68.7073 0.286458
68.8001 0.208333
68.8928 0.364583
68.9855 0.442708
69.0783 0.625
69.171 0.755208
69.2638 0.572917
69.3565 0.390625
69.4493 0.494792
69.542 0.46875
69.6348 0.208333
69.7275 0.390625
69.8202 0.364583
69.913 0.416667
70.0057 0.46875
70.0985 0.729167
70.1912 2.23958
70.284 1.01562
70.3767 1.22396
70.4695 0.390625
70.5622 0.598958
70.6549 0.520833
70.7477 0.260417
70.8404 0.46875
70.9332 0.338542
71.0259 0.182292
71.1187 0.442708
71.2114 0.286458
71.3042 0.3125
71.3969 0.182292
71.4896 0.390625
71.5824 0.260417
71.6751 0.546875
71.7679 0.520833
71.8606 1.22396
71.9534 1.09375
72.0461 2.68229
72.1389 4.58333
72.2316 1.875
72.3243 2.21354
72.4171 0.859375
72.5098 0.442708
72.6026 0.234375
72.6953 0.260417
72.7881 0.234375
72.8808 0.130208
72.9736 0.3125
73.0663 0.260417
73.159 0.182292
73.2518 0.390625
73.3445 0.182292
73.4373 0.286458
73.53 0.364583
73.6228 0.234375
73.7155 0.260417
73.8083 0.208333
73.901 0.364583
73.9937 0.234375
74.0865 0.234375
74.1792 0.15625
74.272 0.208333
74.3647 0.208333
74.4575 0.208333
74.5502 0.130208
74.643 0.182292
74.7357 0.338542
74.8284 0.182292
74.9212 0.234375
75.0139 0.182292
75.1067 0.104167
75.1994 0.234375
75.2922 0.208333
75.3849 0.3125
75.4777 0.286458
75.5704 0.3125
75.6631 0.208333
75.7559 0.260417
75.8486 0.208333
75.9414 0.3125
76.0341 0.260417
76.1269 0.286458
76.2196 0.3125
76.3124 0.364583
76.4051 0.364583
76.4978 0.208333
76.5906 0.208333
76.6833 0.338542
76.7761 0.182292
76.8688 0.260417
76.9616 0.182292
77.0543 0.15625
77.1471 0.390625
77.2398 0.3125
77.3326 0.338542
77.4253 0.208333
77.518 0.416667
77.6108 0.260417
77.7035 0.260417
77.7963 0.416667
77.889 1.25
77.9818 2.29167
78.0745 0.9375
78.1673 1.48437
78.26 0.833333
78.3527 0.546875
78.4455 1.06771
78.5382 2.44792
78.631 12.5
78.7237 12.2656
78.8165 6.90104
78.9092 10.026
79.002 2.00521
79.0947 0.963542
79.1874 0.677083
79.2802 0.364583
79.3729 0.442708
79.4657 0.260417
79.5584 0.416667
79.6512 0.338542
79.7439 0.416667
79.8367 0.442708
79.9294 0.260417
80.0221 0.234375
80.1149 0.390625
80.2076 0.3125
80.3004 0.390625
80.3931 0.364583
80.4859 0.651042
80.5786 0.885417
80.6714 2.26562
80.7641 9.66146
80.8568 6.64062
80.9496 5.05208
81.0423 4.14062
81.1351 1.69271
81.2278 0.703125
81.3206 0.520833
81.4133 0.46875
81.5061 0.286458
81.5988 0.182292
81.6915 0.442708
81.7843 0.572917
81.877 0.338542
81.9698 0.234375
82.0625 0.46875
82.1553 0.286458
82.248 0.234375
82.3408 0.3125
82.4335 0.46875
82.5262 0.234375
82.619 0.338542
82.7117 0.3125
82.8045 0.546875
82.8972 0.755208
82.99 0.260417
83.0827 0.338542
83.1755 0.46875
83.2682 0.182292
83.3609 0.260417
83.4537 0.364583
83.5464 0.625
83.6392 0.416667
83.7319 0.3125
83.8247 0.598958
83.9174 0.286458
84.0102 0.130208
84.1029 0.260417
84.1956 0.260417
84.2884 0.260417
84.3811 0.286458
84.4739 0.15625
84.5666 0.390625
84.6594 0.15625
84.7521 0.182292
84.8449 0.260417
84.9376 0.338542
85.0303 0.494792
85.1231 0.208333
85.2158 0.182292
85.3086 0.286458
85.4013 0.286458
85.4941 0.208333
85.5868 0.416667
85.6796 0.286458
85.7723 0.078125
85.8651 0.338542
85.9578 0.208333
86.0505 0.234375
86.1433 0.15625
86.236 0.3125
86.3288 0.338542
86.4215 0.15625
86.5143 0.364583
86.607 0.260417
86.6998 0.15625
86.7925 0.182292
86.8852 0.364583
86.978 0.208333
87.0707 0.338542
87.1635 0.234375
87.2562 0.260417
87.349 0.208333
87.4417 0.234375
87.5345 0.208333
87.6272 0.286458
87.7199 0.364583
87.8127 0.260417
87.9054 0.208333
87.9982 0.234375
88.0909 0.182292
88.1837 0.234375
88.2764 0.234375
88.3692 0.260417
88.4619 0.338542
88.5546 0.520833
88.6474 1.27604
88.7401 0.520833
88.8329 0.390625
88.9256 0.625
89.0184 0.260417
89.1111 0.130208
89.2039 0.286458
89.2966 0.338542
89.3893 0.182292
89.4821 0.182292
89.5748 0.182292
89.6676 0.286458
89.7603 0.442708
89.8531 0.104167
89.9458 0.46875
90.0386 0.260417
90.1313 0.208333
90.224 0.260417
90.3168 0.286458
90.4095 0.15625
90.5023 0.208333
90.595 0.286458
90.6878 0.286458
90.7805 0.390625
90.8733 0.130208
90.966 0.208333
91.0587 0.3125
91.1515 0.15625
91.2442 0.3125
91.337 0.15625
91.4297 0.234375
91.5225 0.442708
91.6152 0.338542
91.708 0.390625
91.8007 0.755208
91.8934 1.09375
91.9862 2.8125
92.0789 1.43229
92.1717 1.06771
92.2644 1.90104
92.3572 1.27604
92.4499 3.67187
92.5427 3.04687
92.6354 1.01562
92.7281 2.55208
92.8209 1.35417
92.9136 0.442708
93.0064 0.338542
93.0991 0.286458
93.1919 0.260417
93.2846 0.286458
93.3774 0.208333
93.4701 0.208333
93.5628 0.234375
93.6556 0.130208
93.7483 0.286458
93.8411 0.3125
93.9338 0.182292
94.0266 0.260417
94.1193 0.208333
94.2121 0.104167
94.3048 0.364583
94.3975 0.494792
94.4903 0.442708
94.583 0.442708
94.6758 0.364583
94.7685 0.234375
94.8613 0.260417
94.954 0.208333
95.0468 0.286458
95.1395 0.442708
95.2323 0.3125
95.325 0.286458
95.4177 0.338542
95.5105 0.208333
95.6032 0.286458
95.696 0.208333
95.7887 0.234375
95.8815 0.15625
95.9742 0.130208
96.067 0.208333
96.1597 0.15625
96.2524 0.286458
96.3452 0.182292
96.4379 0.260417
96.5307 0.494792
96.6234 0.364583
96.7162 0.364583
96.8089 0.286458
96.9017 0.416667
96.9944 0.911458
97.0871 3.56771
97.1799 1.58854
97.2726 0.833333
97.3654 2.76042
97.4581 0.807292
97.5509 0.546875
97.6436 0.130208
97.7364 0.364583
97.8291 0.15625
97.9218 0.130208
98.0146 0.3125
98.1073 0.15625
98.2001 0.208333
98.2928 0.234375
98.3856 0.3125
98.4783 0.182292
98.5711 0.442708
98.6638 0.260417
98.7565 0.3125
98.8493 0.130208
98.942 0.208333
99.0348 0.182292
99.1275 0.260417
99.2203 0.208333
99.313 0.260417
99.4058 0.3125
99.4985 0.390625
99.5912 0.260417
99.684 0.234375
99.7767 0.260417
99.8695 0.390625
99.9622 0.15625
100.055 0.130208
100.148 0.3125
100.24 0.286458
100.333 0.286458
100.426 0.364583
100.519 0.911458
100.611 0.3125
100.704 0.364583
100.797 0.442708
100.89 0.546875
100.982 0.208333
101.075 0.338542
101.168 0.234375
101.261 0.442708
101.353 0.234375
101.446 0.338542
101.539 0.416667
101.632 0.234375
101.724 0.234375
101.817 0.286458
101.91 0.364583
102.003 0.911458
102.095 3.75
102.188 1.51042
102.281 0.598958
102.374 1.69271
102.466 0.729167
102.559 0.390625
102.652 0.416667
102.745 0.208333
102.837 0.234375
102.93 0.208333
103.023 0.46875
103.116 0.416667
103.208 0.416667
103.301 0.364583
103.394 0.3125
103.487 0.442708
103.579 0.3125
103.672 0.390625
103.765 0.442708
103.857 0.260417
103.95 0.416667
104.043 0.208333
104.136 0.208333
104.228 0.286458
104.321 0.3125
104.414 0.338542
104.507 0.338542
104.599 0.182292
104.692 0.364583
104.785 1.35417
104.878 4.0625
104.97 1.22396
105.063 2.36979
105.156 1.43229
105.249 1.58854
105.341 0.807292
105.434 1.30208
105.527 0.46875
105.62 0.364583
105.712 0.3125
105.805 0.078125
105.898 0.208333
105.991 0.364583
106.083 0.364583
106.176 0.338542
106.269 0.520833
106.362 0.364583
106.454 0.442708
106.547 0.442708
106.64 0.3125
106.733 0.286458
106.825 0.3125
106.918 0.130208
107.011 0.260417
107.104 0.078125
107.196 0.208333
107.289 0.3125
107.382 0.286458
107.475 0.182292
107.567 0.234375
107.66 0.364583
107.753 0.208333
107.846 0.364583
107.938 0.364583
108.031 0.338542
108.124 0.286458
108.216 0.3125
108.309 0.442708
108.402 0.3125
108.495 1.01562
108.587 2.65625
108.68 1.71875
108.773 0.755208
108.866 0.729167
108.958 2.10937
109.051 0.989583
109.144 0.598958
109.237 0.416667
109.329 0.182292
109.422 0.3125
109.515 0.260417
109.608 0.286458
109.7 0.130208
109.793 0.260417
109.886 0.286458
109.979 0.286458
110.071 0.078125
110.164 0.416667
110.257 0.3125
110.35 0.3125
110.442 0.208333
110.535 0.364583
110.628 0.442708
110.721 0.130208
110.813 0.234375
110.906 0.677083
110.999 0.651042
111.092 0.755208
111.184 0.651042
111.277 0.338542
111.37 0.390625
111.463 0.520833
111.555 0.677083
111.648 1.11979
111.741 4.81771
111.834 3.69792
111.926 1.5625
112.019 1.19792
112.112 2.70833
112.205 2.29167
112.297 0.703125
112.39 0.546875
112.483 0.416667
112.575 0.494792
112.668 0.260417
112.761 0.390625
112.854 0.260417
112.946 0.338542
113.039 0.078125
113.132 0.416667
113.225 0.46875
113.317 0.234375
113.41 0.338542
113.503 0.3125
113.596 0.182292
113.688 0.364583
113.781 0.338542
113.874 0.338542
113.967 0.3125
114.059 0.3125
114.152 0.234375
114.245 0.364583
114.338 0.364583
114.43 0.182292
114.523 0.182292
114.616 0.260417
114.709 0.260417
114.801 0.286458
114.894 0.364583
114.987 0.364583
115.08 0.442708
115.172 0.390625
115.265 0.46875
115.358 0.234375
115.451 0.3125
115.543 0.364583
115.636 0.286458
115.729 0.442708
115.822 0.572917
115.914 0.494792
116.007 0.390625
116.1 0.416667
116.193 0.442708
116.285 0.442708
116.378 0.3125
116.471 0.442708
116.563 0.3125
116.656 0.364583
116.749 0.494792
116.842 0.234375
116.934 0.46875
117.027 0.546875
117.12 0.520833
117.213 0.442708
117.305 0.572917
117.398 0.572917
117.491 0.46875
117.584 0.963542
117.676 1.30208
117.769 4.79167
117.862 7.83854
117.955 3.02083
118.047 1.53646
118.14 2.00521
118.233 3.61979
118.326 2.13542
118.418 0.911458
118.511 0.520833
118.604 0.598958
118.697 0.442708
118.789 0.234375
118.882 0.494792
118.975 0.364583
119.068 0.234375
119.16 0.364583
119.253 0.520833
119.346 0.3125
119.439 0.416667
119.531 0.390625
119.624 0.182292
119.717 0.286458
119.81 0.364583
119.902 0.364583
119.995 0.494792
120.088 0.286458
120.181 0.364583
120.273 0.364583
120.366 0.260417
120.459 0.208333
120.552 0.338542
120.644 0.390625
120.737 0.364583
120.83 0.520833
120.922 0.3125
121.015 0.286458
121.108 0.364583
121.201 0.338542
121.293 0.286458
121.386 0.234375
121.479 0.15625
121.572 0.3125
121.664 0.442708
121.757 0.234375
121.85 0.234375
121.943 0.234375
122.035 0.286458
122.128 0.3125
122.221 0.390625
122.314 0.520833
122.406 0.625
122.499 0.755208
122.592 0.416667
122.685 1.06771
122.777 1.84896
122.87 0.807292
122.963 0.677083
123.056 0.598958
123.148 0.703125
123.241 0.755208
123.334 0.442708
123.427 0.520833
123.519 0.286458
123.612 0.572917
123.705 0.286458
123.798 0.286458
123.89 0.3125
123.983 0.286458
124.076 0.442708
124.169 0.338542
124.261 0.3125
124.354 0.286458
124.447 0.364583
124.54 0.442708
124.632 0.3125
124.725 0.234375
124.818 0.364583
124.911 0.286458
125.003 0.625
125.096 0.46875
125.189 0.390625
125.281 0.338542
125.374 0.46875
125.467 0.3125
125.56 0.416667
125.652 0.286458
125.745 0.651042
125.838 0.364583
125.931 0.338542
126.023 0.364583
126.116 0.520833
126.209 0.494792
126.302 0.338542
126.394 0.494792
126.487 0.494792
126.58 0.520833
126.673 0.677083
126.765 0.859375
126.858 0.807292
126.951 1.53646
127.044 2.96875
127.136 7.89062
127.229 5.59896
127.322 2.08333
127.415 1.48437
127.507 1.48437
127.6 2.63021
127.693 4.11458
127.786 1.84896
127.878 1.25
127.971 1.04167
128.064 0.755208
128.157 0.598958
128.249 0.520833
128.342 0.546875
128.435 0.338542
128.528 0.338542
128.62 0.338542
128.713 0.3125
128.806 0.390625
128.899 0.234375
128.991 0.390625
129.084 0.494792
129.177 0.416667
129.27 0.416667
129.362 0.416667
129.455 0.208333
129.548 0.494792
129.64 0.520833
129.733 0.338542
129.826 0.364583
129.919 0.416667
130.011 0.364583
130.104 0.598958
130.197 0.416667
130.29 0.208333
130.382 0.234375
130.475 0.442708
130.568 0.364583
130.661 0.3125
130.753 0.494792
130.846 0.885417
130.939 1.30208
131.032 1.43229
131.124 0.651042
131.217 0.598958
131.31 0.546875
131.403 0.598958
131.495 1.32812
131.588 1.01562
131.681 0.677083
131.774 0.364583
131.866 0.338542
131.959 0.3125
132.052 0.338542
132.145 0.416667
132.237 0.208333
132.33 0.338542
132.423 0.364583
132.516 0.390625
132.608 0.15625
132.701 0.260417
132.794 0.3125
132.887 0.338542
132.979 0.46875
133.072 0.234375
133.165 0.520833
133.258 0.390625
133.35 0.546875
133.443 0.651042
133.536 0.416667
133.628 0.3125
133.721 0.546875
133.814 0.703125
133.907 0.46875
133.999 0.703125
134.092 0.703125
134.185 0.494792
134.278 0.520833
134.37 0.494792
134.463 0.390625
134.556 0.520833
134.649 0.338542
134.741 0.494792
134.834 0.104167
134.927 0.572917
135.02 0.286458
135.112 0.208333
135.205 0.520833
135.298 0.260417
135.391 0.260417
135.483 0.494792
135.576 0.338542
135.669 0.416667
135.762 0.338542
135.854 0.598958
135.947 0.234375
136.04 0.234375
136.133 0.46875
136.225 0.234375
136.318 0.182292
136.411 0.390625
136.504 0.46875
136.596 0.390625
136.689 0.416667
136.782 0.390625
136.875 0.442708
136.967 0.390625
137.06 0.520833
137.153 0.364583
137.246 0.338542
137.338 0.520833
137.431 0.3125
137.524 0.338542
137.617 0.364583
137.709 0.338542
137.802 0.546875
137.895 0.3125
137.987 0.3125
138.08 0.390625
138.173 0.46875
138.266 0.286458
138.358 0.520833
138.451 0.286458
138.544 0.520833
138.637 0.390625
138.729 0.729167
138.822 0.442708
138.915 0.260417
139.008 0.3125
139.1 0.442708
139.193 0.520833
139.286 0.546875
139.379 0.572917
139.471 0.286458
139.564 0.130208
139.657 0.494792
139.75 0.390625
139.842 0.494792
139.935 0.364583
139.997 0.390625